Acceleration X (g),Acceleration Y (g),Acceleration Z (g),Heart Rate (bpm),Activity
-0.662,-0.313,0.63,60,0
-0.677,-0.31,0.642,60,0
-0.677,-0.307,0.664,60,0
-0.656,-0.315,0.681,60,0
-0.655,-0.32,0.677,60,0
-0.673,-0.312,0.66,60,0
-0.687,-0.304,0.654,60,0
-0.678,-0.305,0.651,60,0
-0.674,-0.305,0.652,60,0
-0.666,-0.301,0.651,60,0
-0.658,-0.31,0.635,60,0
-0.682,-0.315,0.62,60,0
-0.691,-0.313,0.598,60,0
-0.698,-0.312,0.576,60,0
-0.751,-0.31,0.575,60,0
-0.759,-0.312,0.564,60,0
-0.768,-0.294,0.565,60,0
-0.798,-0.268,0.573,60,0
-0.775,-0.271,0.544,60,0
-0.774,-0.285,0.513,60,0
-0.776,-0.276,0.486,60,0
-0.813,-0.258,0.454,60,0
-0.84,-0.258,0.47,60,0
-0.84,-0.258,0.47,60,0
-0.84,-0.258,0.47,60,0
-0.826,-0.283,0.508,60,0
-0.868,-0.295,0.468,60,0
-0.882,-0.278,0.422,60,0
-0.842,-0.282,0.439,60,0
-0.847,-0.285,0.437,60,0
-0.844,-0.283,0.444,60,0
-0.823,-0.286,0.469,60,0
-0.81,-0.265,0.446,60,0
-0.791,-0.249,0.428,60,0
-0.82,-0.259,0.448,60,0
-0.858,-0.277,0.464,60,0
-0.846,-0.277,0.448,60,0
-0.807,-0.275,0.421,60,0
-0.792,-0.303,0.403,60,0
-0.771,-0.319,0.355,60,0
-0.703,-0.318,0.322,60,0
-0.571,-0.305,0.281,60,0
-0.593,-0.343,0.21,60,0
-0.757,-0.444,0.182,60,0
-0.834,-0.537,0.205,60,0
-0.866,-0.62,0.233,60,0
-0.891,-0.696,0.211,60,0
-0.916,-0.753,0.186,60,0
-0.914,-0.766,0.173,60,0
-0.883,-0.756,0.127,60,0
-0.859,-0.749,0.101,60,0
-0.821,-0.74,0.104,60,0
-0.763,-0.718,0.089,60,0
-0.72,-0.697,0.085,60,0
-0.683,-0.678,0.086,60,0
-0.686,-0.666,0.072,60,0
-0.678,-0.666,0.083,60,0
-0.669,-0.666,0.093,60,0
-0.692,-0.681,0.093,60,0
-0.7,-0.715,0.109,59,0
-0.733,-0.722,0.09,59,0
-0.697,-0.714,0.085,59,0
-0.598,-0.723,0.113,59,0
-0.565,-0.702,0.066,59,0
-0.674,-0.662,-0.043,59,0
-0.672,-0.637,-0.078,59,0
-0.539,-0.647,-0.056,59,0
-0.543,-0.691,-0.081,59,0
-0.562,-0.755,-0.114,59,0
-0.51,-0.819,-0.093,59,0
-0.453,-0.875,-0.041,59,0
-0.47,-0.948,-0.003,59,0
-0.503,-0.989,-0.021,59,0
-0.473,-0.989,-0.066,59,0
-0.399,-0.978,-0.094,59,0
-0.35,-0.961,-0.105,59,0
-0.358,-0.965,-0.089,59,0
-0.371,-0.977,-0.078,59,0
-0.377,-0.968,-0.093,59,0
-0.397,-0.968,-0.09,59,0
-0.378,-0.971,-0.059,59,0
-0.327,-0.96,-0.043,59,0
-0.29,-0.94,-0.049,59,0
-0.267,-0.917,-0.051,59,0
-0.273,-0.911,-0.047,59,0
-0.315,-0.922,-0.038,59,0
-0.367,-0.93,-0.033,59,0
-0.402,-0.934,-0.042,59,0
-0.401,-0.937,-0.042,59,0
-0.372,-0.937,-0.025,59,0
-0.354,-0.927,-0.019,59,0
-0.363,-0.912,-0.023,59,0
-0.374,-0.909,-0.024,59,0
-0.382,-0.91,-0.019,59,0
-0.392,-0.911,-0.022,59,0
-0.396,-0.918,-0.018,59,0
-0.394,-0.923,-0.008,59,0
-0.389,-0.916,-0.01,59,0
-0.389,-0.912,-0.015,59,0
-0.395,-0.919,-0.022,59,0
-0.396,-0.927,-0.035,59,0
-0.381,-0.927,-0.04,59,0
-0.367,-0.919,-0.032,59,0
-0.382,-0.916,-0.032,59,0
-0.422,-0.925,-0.047,59,0
-0.447,-0.917,-0.062,59,0
-0.426,-0.908,-0.059,59,0
-0.377,-0.919,-0.042,59,0
-0.336,-0.928,-0.035,59,0
-0.325,-0.927,-0.04,59,0
-0.343,-0.927,-0.042,59,0
-0.368,-0.927,-0.043,59,0
-0.386,-0.927,-0.048,59,0
-0.393,-0.933,-0.046,59,0
-0.385,-0.94,-0.042,59,0
-0.365,-0.934,-0.04,59,0
-0.357,-0.922,-0.034,59,0
-0.367,-0.925,-0.033,59,0
-0.378,-0.928,-0.039,59,0
-0.383,-0.923,-0.038,59,0
-0.386,-0.922,-0.028,59,0
-0.388,-0.925,-0.022,59,0
-0.389,-0.928,-0.025,59,0
-0.387,-0.929,-0.027,59,0
-0.388,-0.927,-0.029,59,0
-0.394,-0.925,-0.031,59,0
-0.4,-0.924,-0.029,59,0
-0.398,-0.922,-0.024,59,0
-0.391,-0.92,-0.022,59,0
-0.386,-0.919,-0.024,60,0
-0.385,-0.921,-0.026,60,0
-0.39,-0.925,-0.027,60,0
-0.392,-0.926,-0.025,60,0
-0.384,-0.921,-0.021,60,0
-0.38,-0.919,-0.018,60,0
-0.384,-0.921,-0.018,60,0
-0.392,-0.92,-0.018,60,0
-0.397,-0.916,-0.02,60,0
-0.396,-0.917,-0.02,60,0
-0.393,-0.919,-0.018,60,0
-0.393,-0.917,-0.019,60,0
-0.393,-0.917,-0.022,60,0
-0.393,-0.918,-0.023,60,0
-0.393,-0.915,-0.022,60,0
-0.393,-0.913,-0.022,60,0
-0.393,-0.914,-0.026,60,0
-0.394,-0.915,-0.028,60,0
-0.398,-0.916,-0.026,60,0
-0.403,-0.911,-0.027,60,0
-0.404,-0.908,-0.03,60,0
-0.4,-0.913,-0.028,60,0
-0.396,-0.915,-0.027,60,0
-0.394,-0.911,-0.027,60,0
-0.396,-0.91,-0.028,60,0
-0.403,-0.914,-0.028,60,0
-0.412,-0.916,-0.029,60,0
-0.412,-0.911,-0.028,60,0
-0.405,-0.908,-0.025,60,0
-0.406,-0.91,-0.025,60,0
-0.409,-0.911,-0.025,61,0
-0.406,-0.911,-0.023,61,0
-0.406,-0.911,-0.024,61,0
-0.408,-0.91,-0.027,61,0
-0.408,-0.905,-0.029,61,0
-0.408,-0.899,-0.029,61,0
-0.41,-0.9,-0.03,61,0
-0.413,-0.902,-0.03,61,0
-0.413,-0.903,-0.028,61,0
-0.413,-0.906,-0.026,61,0
-0.41,-0.91,-0.025,61,0
-0.407,-0.911,-0.024,61,0
-0.408,-0.912,-0.025,61,0
-0.408,-0.911,-0.022,61,0
-0.407,-0.906,-0.02,61,0
-0.409,-0.903,-0.021,61,0
-0.407,-0.907,-0.023,61,0
-0.401,-0.903,-0.025,61,0
-0.404,-0.894,-0.024,61,0
-0.414,-0.896,-0.016,61,0
-0.424,-0.906,-0.008,62,0
-0.432,-0.907,-0.007,62,0
-0.437,-0.901,-0.007,62,0
-0.433,-0.898,-0.01,62,0
-0.417,-0.905,-0.009,62,0
-0.409,-0.911,-0.008,62,0
-0.414,-0.909,-0.01,62,0
-0.415,-0.904,-0.01,62,0
-0.41,-0.904,-0.009,62,0
-0.409,-0.907,-0.01,62,0
-0.406,-0.909,-0.011,62,0
-0.401,-0.907,-0.009,62,0
-0.403,-0.904,-0.008,62,0
-0.409,-0.903,-0.01,62,0
-0.415,-0.903,-0.01,62,0
-0.42,-0.902,-0.009,62,0
-0.42,-0.9,-0.011,62,0
-0.416,-0.902,-0.013,62,0
-0.412,-0.903,-0.014,62,0
-0.41,-0.902,-0.013,62,0
-0.412,-0.903,-0.012,63,0
-0.413,-0.906,-0.013,63,0
-0.413,-0.906,-0.017,63,0
-0.411,-0.906,-0.021,63,0
-0.406,-0.905,-0.025,63,0
-0.405,-0.904,-0.026,63,0
-0.412,-0.906,-0.027,63,0
-0.412,-0.908,-0.027,63,0
-0.406,-0.908,-0.025,63,0
-0.403,-0.907,-0.025,63,0
-0.406,-0.909,-0.026,63,0
-0.405,-0.909,-0.027,63,0
-0.401,-0.908,-0.026,63,0
-0.402,-0.91,-0.023,63,0
-0.405,-0.91,-0.023,63,0
-0.403,-0.91,-0.026,63,0
-0.401,-0.914,-0.027,63,0
-0.401,-0.917,-0.025,63,0
-0.401,-0.918,-0.024,63,0
-0.398,-0.918,-0.028,63,0
-0.396,-0.915,-0.03,64,0
-0.397,-0.911,-0.028,64,0
-0.402,-0.912,-0.027,64,0
-0.406,-0.913,-0.031,64,0
-0.4,-0.913,-0.034,64,0
-0.394,-0.914,-0.032,64,0
-0.392,-0.914,-0.032,64,0
-0.395,-0.913,-0.033,64,0
-0.399,-0.913,-0.031,64,0
-0.396,-0.914,-0.031,64,0
-0.396,-0.916,-0.034,64,0
-0.398,-0.919,-0.034,64,0
-0.396,-0.919,-0.029,64,0
-0.393,-0.914,-0.029,64,0
-0.393,-0.912,-0.032,64,0
-0.4,-0.918,-0.029,64,0
-0.4,-0.92,-0.028,64,0
-0.392,-0.912,-0.033,64,0
-0.393,-0.904,-0.033,64,0
-0.407,-0.906,-0.028,64,0
-0.418,-0.913,-0.027,65,0
-0.414,-0.911,-0.031,65,0
-0.414,-0.903,-0.036,65,0
-0.428,-0.905,-0.037,65,0
-0.422,-0.907,-0.033,65,0
-0.399,-0.906,-0.027,65,0
-0.391,-0.908,-0.024,65,0
-0.394,-0.908,-0.028,65,0
-0.405,-0.91,-0.029,65,0
-0.415,-0.915,-0.021,65,0
-0.418,-0.912,-0.019,66,0
-0.412,-0.905,-0.027,66,0
-0.401,-0.906,-0.032,66,0
-0.392,-0.916,-0.034,66,0
-0.385,-0.919,-0.032,66,0
-0.385,-0.916,-0.027,66,0
-0.389,-0.921,-0.027,66,0
-0.391,-0.926,-0.028,66,0
-0.39,-0.921,-0.03,66,0
-0.388,-0.914,-0.034,66,0
-0.389,-0.917,-0.033,66,0
-0.385,-0.928,-0.034,66,0
-0.366,-0.938,-0.041,66,0
-0.34,-0.941,-0.033,66,0
-0.345,-0.935,-0.022,66,0
-0.376,-0.923,-0.028,66,0
-0.391,-0.917,-0.034,66,0
-0.387,-0.919,-0.028,66,0
-0.381,-0.922,-0.026,66,0
-0.383,-0.924,-0.037,66,0
-0.381,-0.926,-0.045,67,0
-0.375,-0.925,-0.038,67,0
-0.379,-0.926,-0.035,67,0
-0.394,-0.928,-0.041,67,0
-0.405,-0.918,-0.042,67,0
-0.401,-0.904,-0.04,67,0
-0.396,-0.905,-0.042,67,0
-0.398,-0.914,-0.043,67,0
-0.398,-0.919,-0.041,67,0
-0.394,-0.922,-0.041,67,0
-0.389,-0.922,-0.043,67,0
-0.387,-0.92,-0.046,67,0
-0.385,-0.92,-0.051,67,0
-0.383,-0.927,-0.053,67,0
-0.384,-0.934,-0.052,67,0
-0.384,-0.934,-0.052,67,0
-0.381,-0.932,-0.053,67,0
-0.377,-0.932,-0.056,67,0
-0.379,-0.932,-0.059,67,0
-0.385,-0.922,-0.06,67,0
-0.385,-0.912,-0.056,68,0
-0.383,-0.916,-0.052,68,0
-0.387,-0.925,-0.054,68,0
-0.393,-0.93,-0.058,68,0
-0.394,-0.93,-0.061,68,0
-0.399,-0.929,-0.06,68,0
-0.405,-0.923,-0.058,68,0
-0.399,-0.909,-0.053,68,0
-0.392,-0.9,-0.045,68,0
-0.394,-0.902,-0.043,68,0
-0.398,-0.907,-0.045,68,0
-0.399,-0.913,-0.042,68,0
-0.397,-0.919,-0.037,68,0
-0.396,-0.921,-0.041,68,0
-0.395,-0.918,-0.048,68,0
-0.392,-0.916,-0.047,68,0
-0.39,-0.92,-0.045,68,0
-0.389,-0.922,-0.046,68,0
-0.389,-0.917,-0.048,68,0
-0.388,-0.916,-0.054,68,0
-0.39,-0.922,-0.058,67,0
-0.393,-0.927,-0.056,67,0
-0.397,-0.929,-0.051,67,0
-0.398,-0.926,-0.046,67,0
-0.392,-0.92,-0.043,67,0
-0.385,-0.918,-0.046,67,0
-0.385,-0.918,-0.048,67,0
-0.39,-0.914,-0.045,67,0
-0.398,-0.915,-0.046,67,0
-0.403,-0.915,-0.049,67,0
-0.401,-0.911,-0.044,67,0
-0.395,-0.91,-0.038,67,0
-0.394,-0.91,-0.038,67,0
-0.397,-0.909,-0.037,67,0
-0.406,-0.911,-0.035,67,0
-0.411,-0.912,-0.034,67,0
-0.408,-0.912,-0.038,67,0
-0.403,-0.909,-0.042,67,0
-0.399,-0.905,-0.041,67,0
-0.399,-0.903,-0.039,67,0
-0.4,-0.906,-0.042,66,0
-0.4,-0.915,-0.045,66,0
-0.394,-0.921,-0.044,66,0
-0.389,-0.923,-0.041,66,0
-0.389,-0.922,-0.044,66,0
-0.39,-0.92,-0.046,66,0
-0.39,-0.918,-0.044,66,0
-0.388,-0.916,-0.043,66,0
-0.388,-0.917,-0.045,66,0
-0.392,-0.919,-0.047,66,0
-0.4,-0.924,-0.055,66,0
-0.42,-0.944,-0.068,66,0
-0.435,-0.95,-0.063,66,0
-0.402,-0.916,-0.036,66,0
-0.354,-0.878,-0.008,66,0
-0.35,-0.872,-0.01,66,0
-0.378,-0.891,-0.032,66,0
-0.406,-0.91,-0.046,66,0
-0.423,-0.915,-0.045,66,0
-0.424,-0.912,-0.039,66,0
-0.422,-0.909,-0.046,66,0
-0.424,-0.908,-0.056,66,0
-0.417,-0.91,-0.055,66,0
-0.408,-0.913,-0.052,66,0
-0.403,-0.916,-0.051,66,0
-0.402,-0.921,-0.052,66,0
-0.398,-0.922,-0.055,66,0
-0.394,-0.92,-0.06,66,0
-0.392,-0.922,-0.059,66,0
-0.389,-0.921,-0.055,66,0
-0.385,-0.918,-0.056,65,0
-0.385,-0.919,-0.059,65,0
-0.389,-0.925,-0.061,65,0
-0.389,-0.926,-0.057,65,0
-0.384,-0.923,-0.051,65,0
-0.384,-0.919,-0.052,65,0
-0.391,-0.917,-0.058,65,0
-0.394,-0.919,-0.061,65,0
-0.392,-0.917,-0.057,65,0
-0.394,-0.913,-0.052,65,0
-0.397,-0.911,-0.053,65,0
-0.391,-0.916,-0.055,65,0
-0.38,-0.92,-0.05,65,0
-0.379,-0.92,-0.046,65,0
-0.384,-0.919,-0.05,65,0
-0.386,-0.92,-0.052,65,0
-0.386,-0.924,-0.052,65,0
-0.386,-0.926,-0.053,65,0
-0.386,-0.927,-0.055,65,0
-0.389,-0.925,-0.055,65,0
-0.39,-0.923,-0.054,65,0
-0.387,-0.926,-0.054,65,0
-0.382,-0.927,-0.056,65,0
-0.379,-0.927,-0.055,65,0
-0.381,-0.927,-0.051,65,0
-0.385,-0.927,-0.051,65,0
-0.387,-0.929,-0.054,65,0
-0.385,-0.931,-0.056,65,0
-0.38,-0.928,-0.055,65,0
-0.376,-0.925,-0.055,65,0
-0.377,-0.926,-0.057,65,0
-0.382,-0.926,-0.057,65,0
-0.384,-0.925,-0.057,65,0
-0.383,-0.924,-0.059,65,0
-0.384,-0.924,-0.059,65,0
-0.385,-0.926,-0.057,65,0
-0.385,-0.927,-0.059,65,0
-0.385,-0.924,-0.06,65,0
-0.385,-0.924,-0.06,65,0
-0.385,-0.927,-0.06,65,0
-0.385,-0.927,-0.062,65,0
-0.384,-0.926,-0.063,65,0
-0.383,-0.924,-0.062,65,0
-0.382,-0.925,-0.062,65,0
-0.383,-0.928,-0.063,65,0
-0.384,-0.93,-0.065,65,0
-0.384,-0.927,-0.066,65,0
-0.383,-0.924,-0.065,65,0
-0.381,-0.926,-0.065,65,0
-0.38,-0.928,-0.064,65,0
-0.384,-0.926,-0.065,65,0
-0.39,-0.919,-0.067,65,0
-0.392,-0.924,-0.064,65,0
-0.385,-0.929,-0.059,65,0
-0.382,-0.929,-0.057,73,0
-0.385,-0.927,-0.058,73,0
-0.387,-0.923,-0.059,73,0
-0.389,-0.921,-0.058,73,0
-0.388,-0.921,-0.059,73,0
-0.388,-0.916,-0.062,73,0
-0.387,-0.909,-0.06,73,0
-0.389,-0.909,-0.056,73,0
-0.397,-0.911,-0.055,73,0
-0.402,-0.914,-0.055,73,0
-0.4,-0.915,-0.056,73,0
-0.394,-0.912,-0.057,73,0
-0.39,-0.914,-0.055,73,0
-0.391,-0.917,-0.053,73,0
-0.399,-0.915,-0.052,73,0
-0.408,-0.911,-0.053,73,0
-0.411,-0.907,-0.054,73,0
-0.408,-0.905,-0.053,73,0
-0.403,-0.906,-0.053,75,0
-0.404,-0.906,-0.056,75,0
-0.405,-0.904,-0.057,75,0
-0.405,-0.902,-0.056,76,0
-0.407,-0.907,-0.053,76,0
-0.407,-0.912,-0.053,76,0
-0.405,-0.913,-0.057,76,0
-0.4,-0.913,-0.058,77,0
-0.396,-0.913,-0.057,77,0
-0.396,-0.914,-0.054,77,0
-0.399,-0.916,-0.052,77,0
-0.401,-0.918,-0.054,77,0
-0.399,-0.917,-0.054,78,0
-0.396,-0.915,-0.054,79,0
-0.395,-0.918,-0.054,80,0
-0.396,-0.917,-0.055,80,0
-0.395,-0.911,-0.055,80,0
-0.394,-0.908,-0.054,80,0
-0.395,-0.911,-0.056,81,0
-0.394,-0.914,-0.054,81,0
-0.393,-0.917,-0.051,81,0
-0.394,-0.916,-0.052,81,0
-0.397,-0.912,-0.054,82,0
-0.403,-0.909,-0.052,82,0
-0.404,-0.912,-0.051,82,0
-0.399,-0.915,-0.053,82,0
-0.394,-0.919,-0.051,82,0
-0.39,-0.921,-0.049,82,0
-0.389,-0.919,-0.053,84,0
-0.397,-0.918,-0.054,84,0
-0.41,-0.916,-0.051,85,0
-0.41,-0.907,-0.05,85,0
-0.403,-0.903,-0.051,85,0
-0.408,-0.907,-0.052,86,0
-0.413,-0.91,-0.053,86,0
-0.405,-0.905,-0.055,86,0
-0.397,-0.906,-0.053,86,0
-0.401,-0.911,-0.052,86,0
-0.416,-0.911,-0.056,87,0
-0.417,-0.906,-0.057,87,0
-0.404,-0.904,-0.055,87,0
-0.4,-0.908,-0.057,87,0
-0.399,-0.916,-0.056,88,0
-0.397,-0.92,-0.055,88,0
-0.394,-0.919,-0.057,89,0
-0.391,-0.918,-0.056,89,0
-0.39,-0.919,-0.054,89,0
-0.394,-0.919,-0.059,89,0
-0.395,-0.916,-0.063,90,0
-0.393,-0.917,-0.06,90,0
-0.392,-0.918,-0.054,90,0
-0.391,-0.917,-0.057,90,0
-0.39,-0.919,-0.061,91,0
-0.389,-0.921,-0.061,91,0
-0.391,-0.918,-0.06,91,0
-0.393,-0.915,-0.059,92,0
-0.393,-0.916,-0.058,92,0
-0.392,-0.92,-0.058,92,0
-0.391,-0.919,-0.061,93,0
-0.389,-0.915,-0.064,93,0
-0.389,-0.916,-0.062,93,0
-0.398,-0.914,-0.058,94,0
-0.412,-0.907,-0.058,94,0
-0.411,-0.904,-0.06,94,0
-0.401,-0.911,-0.06,94,0
-0.394,-0.919,-0.058,95,0
-0.392,-0.92,-0.058,95,0
-0.391,-0.917,-0.06,95,0
-0.389,-0.914,-0.062,95,0
-0.387,-0.919,-0.061,96,0
-0.389,-0.925,-0.059,96,0
-0.391,-0.918,-0.06,96,0
-0.39,-0.909,-0.063,97,0
-0.387,-0.911,-0.06,97,0
-0.387,-0.918,-0.056,97,0
-0.387,-0.921,-0.057,98,0
-0.384,-0.921,-0.063,98,0
-0.381,-0.925,-0.063,98,0
-0.382,-0.929,-0.061,98,0
-0.386,-0.929,-0.062,99,0
-0.386,-0.924,-0.064,99,0
-0.384,-0.923,-0.063,99,0
-0.382,-0.922,-0.06,99,0
-0.38,-0.922,-0.06,100,0
-0.381,-0.929,-0.065,100,0
-0.384,-0.932,-0.068,100,0
-0.386,-0.928,-0.07,101,0
-0.386,-0.928,-0.07,101,0
-0.386,-0.929,-0.07,101,0
-0.385,-0.922,-0.072,101,0
-0.381,-0.914,-0.073,102,0
-0.38,-0.918,-0.071,102,0
-0.385,-0.927,-0.071,102,0
-0.388,-0.929,-0.072,102,0
-0.385,-0.924,-0.071,102,0
-0.381,-0.92,-0.07,103,0
-0.382,-0.923,-0.068,103,0
-0.387,-0.926,-0.066,103,0
-0.388,-0.919,-0.069,103,0
-0.388,-0.912,-0.071,103,0
-0.393,-0.913,-0.067,103,0
-0.4,-0.917,-0.06,103,0
-0.405,-0.913,-0.067,103,0
-0.412,-0.908,-0.085,104,0
-0.408,-0.916,-0.09,104,0
-0.388,-0.929,-0.079,104,0
-0.383,-0.936,-0.057,104,0
-0.398,-0.928,-0.062,104,0
-0.401,-0.933,-0.071,104,0
-0.363,-0.929,-0.053,104,0
-0.335,-0.906,-0.034,104,0
-0.349,-0.902,-0.032,104,0
-0.388,-0.908,-0.042,104,0
-0.422,-0.908,-0.05,104,0
-0.419,-0.908,-0.05,104,0
-0.402,-0.91,-0.033,104,0
-0.398,-0.907,-0.03,104,0
-0.414,-0.904,-0.045,104,0
-0.423,-0.909,-0.052,104,0
-0.413,-0.914,-0.052,104,0
-0.401,-0.91,-0.051,104,0
-0.378,-0.905,-0.049,104,0
-0.354,-0.895,-0.065,105,0
-0.36,-0.91,-0.065,105,0
-0.377,-0.939,-0.064,105,0
-0.385,-0.934,-0.09,105,0
-0.385,-0.929,-0.091,105,0
-0.367,-0.934,-0.074,105,0
-0.358,-0.93,-0.076,105,0
-0.374,-0.92,-0.087,105,0
-0.391,-0.911,-0.085,105,0
-0.391,-0.901,-0.083,105,0
-0.366,-0.916,-0.096,105,0
-0.322,-0.949,-0.087,105,0
-0.303,-0.957,-0.076,104,0
-0.337,-0.947,-0.077,104,0
-0.378,-0.941,-0.076,104,0
-0.386,-0.926,-0.089,104,0
-0.378,-0.908,-0.097,104,0
-0.378,-0.904,-0.091,104,0
-0.376,-0.912,-0.089,104,0
-0.372,-0.923,-0.095,104,0
-0.368,-0.929,-0.104,104,0
-0.356,-0.932,-0.107,104,0
-0.337,-0.939,-0.1,104,0
-0.322,-0.942,-0.097,104,0
-0.312,-0.944,-0.104,104,0
-0.308,-0.943,-0.099,104,0
-0.303,-0.94,-0.09,104,0
-0.301,-0.941,-0.093,104,0
-0.315,-0.949,-0.089,104,0
-0.331,-0.954,-0.081,104,0
-0.333,-0.948,-0.09,104,0
-0.331,-0.939,-0.106,104,0
-0.327,-0.939,-0.114,104,0
-0.316,-0.94,-0.117,104,0
-0.311,-0.938,-0.12,104,0
-0.314,-0.941,-0.114,104,0
-0.307,-0.94,-0.108,104,0
-0.296,-0.933,-0.109,104,0
-0.302,-0.933,-0.109,104,0
-0.325,-0.942,-0.111,104,0
-0.343,-0.946,-0.118,104,0
-0.339,-0.944,-0.121,104,0
-0.326,-0.935,-0.113,104,0
-0.323,-0.925,-0.11,104,0
-0.33,-0.928,-0.113,104,0
-0.338,-0.935,-0.117,104,0
-0.344,-0.937,-0.123,104,0
-0.338,-0.94,-0.124,104,0
-0.324,-0.941,-0.122,104,0
-0.312,-0.939,-0.122,103,0
-0.305,-0.936,-0.126,103,0
-0.304,-0.942,-0.131,102,0
-0.303,-0.95,-0.127,102,0
-0.295,-0.947,-0.123,102,0
-0.285,-0.946,-0.126,102,0
-0.275,-0.952,-0.129,101,0
-0.265,-0.953,-0.133,101,0
-0.26,-0.95,-0.138,101,0
-0.252,-0.953,-0.137,101,0
-0.245,-0.959,-0.133,100,0
-0.246,-0.964,-0.127,100,0
-0.252,-0.967,-0.125,100,0
-0.262,-0.973,-0.126,100,0
-0.268,-0.975,-0.125,99,0
-0.262,-0.966,-0.119,99,0
-0.263,-0.958,-0.118,98,0
-0.275,-0.965,-0.123,98,0
-0.283,-0.968,-0.126,98,0
-0.273,-0.953,-0.124,98,0
-0.263,-0.936,-0.116,97,0
-0.272,-0.927,-0.125,97,0
-0.296,-0.932,-0.143,97,0
-0.317,-0.928,-0.14,97,0
-0.323,-0.92,-0.119,96,0
-0.32,-0.929,-0.096,96,0
-0.328,-0.936,-0.089,96,0
-0.342,-0.933,-0.098,96,0
-0.346,-0.935,-0.106,95,0
-0.341,-0.938,-0.111,95,0
-0.325,-0.929,-0.115,95,0
-0.311,-0.923,-0.116,95,0
-0.316,-0.939,-0.11,95,0
-0.338,-0.955,-0.099,95,0
-0.349,-0.957,-0.1,95,0
-0.343,-0.957,-0.114,95,0
-0.333,-0.947,-0.129,95,0
-0.326,-0.927,-0.123,95,0
-0.314,-0.926,-0.103,95,0
-0.289,-0.937,-0.091,94,0
-0.273,-0.945,-0.09,94,0
-0.291,-0.947,-0.095,94,0
-0.337,-0.943,-0.099,94,0
-0.367,-0.942,-0.1,94,0
-0.369,-0.929,-0.103,94,0
-0.366,-0.906,-0.104,94,0
-0.359,-0.893,-0.101,94,0
-0.346,-0.901,-0.106,94,0
-0.349,-0.926,-0.113,94,0
-0.361,-0.944,-0.104,95,0
-0.358,-0.942,-0.084,95,0
-0.347,-0.938,-0.083,95,0
-0.352,-0.939,-0.095,95,0
-0.368,-0.941,-0.095,95,0
-0.366,-0.942,-0.091,95,0
-0.341,-0.947,-0.099,95,0
-0.315,-0.949,-0.107,95,0
-0.305,-0.942,-0.105,95,0
-0.302,-0.932,-0.1,95,0
-0.31,-0.932,-0.099,97,0
-0.319,-0.943,-0.098,97,0
-0.323,-0.946,-0.097,97,0
-0.334,-0.946,-0.102,97,0
-0.348,-0.951,-0.106,97,0
-0.339,-0.937,-0.11,97,0
-0.31,-0.913,-0.118,97,0
-0.297,-0.907,-0.119,97,0
-0.301,-0.92,-0.113,97,0
-0.309,-0.942,-0.111,97,0
-0.333,-0.971,-0.108,98,0
-0.36,-0.988,-0.094,98,0
-0.373,-0.961,-0.081,98,0
-0.361,-0.902,-0.084,98,0
-0.32,-0.867,-0.098,98,0
-0.295,-0.884,-0.104,98,0
-0.306,-0.925,-0.103,98,0
-0.337,-0.954,-0.099,98,0
-0.366,-0.957,-0.099,98,0
-0.372,-0.936,-0.106,98,0
-0.359,-0.922,-0.11,100,0
-0.344,-0.93,-0.107,100,0
-0.341,-0.942,-0.108,100,0
-0.351,-0.943,-0.114,100,0
-0.347,-0.94,-0.114,100,0
-0.326,-0.939,-0.11,100,0
-0.3,-0.934,-0.11,100,0
-0.283,-0.932,-0.114,100,0
-0.293,-0.94,-0.114,100,0
-0.314,-0.947,-0.111,100,0
-0.33,-0.945,-0.112,102,0
-0.346,-0.936,-0.117,102,0
-0.348,-0.932,-0.118,102,0
-0.327,-0.934,-0.114,102,0
-0.302,-0.942,-0.11,102,0
-0.288,-0.952,-0.109,102,0
-0.295,-0.958,-0.104,102,0
-0.314,-0.961,-0.099,102,0
-0.321,-0.955,-0.104,102,0
-0.312,-0.945,-0.109,102,0
-0.296,-0.937,-0.113,103,0
-0.286,-0.937,-0.111,103,0
-0.29,-0.941,-0.103,103,0
-0.301,-0.945,-0.097,103,0
-0.309,-0.945,-0.098,103,0
-0.312,-0.941,-0.102,103,0
-0.314,-0.937,-0.102,103,0
-0.312,-0.937,-0.1,103,0
-0.304,-0.939,-0.1,103,0
-0.297,-0.94,-0.104,103,0
-0.297,-0.941,-0.104,105,0
-0.305,-0.944,-0.093,105,0
-0.322,-0.949,-0.085,105,0
-0.334,-0.949,-0.09,105,0
-0.331,-0.945,-0.096,105,0
-0.321,-0.947,-0.093,105,0
-0.312,-0.949,-0.09,105,0
-0.305,-0.947,-0.094,105,0
-0.296,-0.944,-0.1,105,0
-0.294,-0.945,-0.099,105,0
-0.297,-0.945,-0.095,106,0
-0.288,-0.947,-0.099,106,0
-0.277,-0.95,-0.103,106,0
-0.27,-0.948,-0.102,106,0
-0.277,-0.944,-0.093,106,0
-0.305,-0.941,-0.084,106,0
-0.341,-0.943,-0.084,106,0
-0.354,-0.947,-0.088,106,0
-0.339,-0.952,-0.088,106,0
-0.312,-0.954,-0.083,106,0
-0.292,-0.947,-0.082,108,0
-0.29,-0.941,-0.084,108,0
-0.303,-0.937,-0.085,108,0
-0.324,-0.945,-0.084,108,0
-0.344,-0.956,-0.086,108,0
-0.343,-0.947,-0.091,108,0
-0.328,-0.935,-0.088,108,0
-0.315,-0.928,-0.082,108,0
-0.303,-0.924,-0.081,108,0
-0.3,-0.935,-0.085,108,0
-0.311,-0.953,-0.093,110,0
-0.329,-0.952,-0.091,110,0
-0.337,-0.94,-0.087,110,0
-0.321,-0.939,-0.09,110,0
-0.304,-0.948,-0.094,110,0
-0.308,-0.951,-0.093,110,0
-0.315,-0.951,-0.086,110,0
-0.309,-0.954,-0.083,110,0
-0.291,-0.944,-0.089,110,0
-0.279,-0.932,-0.093,110,0
-0.283,-0.929,-0.097,111,0
-0.294,-0.933,-0.098,111,0
-0.299,-0.944,-0.095,111,0
-0.303,-0.952,-0.094,111,0
-0.306,-0.953,-0.092,111,0
-0.307,-0.951,-0.088,111,0
-0.3,-0.952,-0.093,111,0
-0.288,-0.954,-0.103,111,0
-0.278,-0.95,-0.11,111,0
-0.273,-0.949,-0.111,111,0
-0.275,-0.958,-0.108,113,0
-0.274,-0.967,-0.104,113,0
-0.278,-0.974,-0.082,113,0
-0.29,-0.97,-0.06,113,0
-0.295,-0.954,-0.075,113,0
-0.295,-0.951,-0.101,113,0
-0.302,-0.963,-0.109,113,0
-0.303,-0.965,-0.105,113,0
-0.272,-0.957,-0.108,113,0
-0.234,-0.947,-0.13,113,0
-0.211,-0.927,-0.143,114,0
-0.224,-0.926,-0.114,114,0
-0.263,-0.967,-0.073,114,0
-0.285,-0.994,-0.071,114,0
-0.282,-0.979,-0.097,114,0
-0.267,-0.947,-0.109,114,0
-0.25,-0.938,-0.108,114,0
-0.241,-0.955,-0.104,114,0
-0.242,-0.965,-0.103,114,0
-0.248,-0.96,-0.102,114,0
-0.254,-0.952,-0.101,115,0
-0.26,-0.947,-0.101,115,0
-0.267,-0.948,-0.102,115,0
-0.275,-0.958,-0.101,115,0
-0.283,-0.966,-0.103,115,0
-0.28,-0.966,-0.103,115,0
-0.269,-0.963,-0.099,115,0
-0.266,-0.961,-0.095,115,0
-0.275,-0.955,-0.098,115,0
-0.279,-0.954,-0.103,115,0
-0.27,-0.956,-0.104,116,0
-0.254,-0.956,-0.104,116,0
-0.245,-0.96,-0.104,116,0
-0.253,-0.965,-0.103,116,0
-0.274,-0.963,-0.104,116,0
-0.283,-0.958,-0.106,116,0
-0.271,-0.955,-0.107,116,0
-0.255,-0.96,-0.106,116,0
-0.248,-0.966,-0.105,116,0
-0.247,-0.963,-0.106,116,0
-0.251,-0.956,-0.107,117,0
-0.258,-0.955,-0.109,117,0
-0.262,-0.959,-0.109,117,0
-0.261,-0.964,-0.107,117,0
-0.257,-0.963,-0.106,117,0
-0.256,-0.957,-0.105,117,0
-0.26,-0.954,-0.106,117,0
-0.267,-0.954,-0.105,117,0
-0.272,-0.959,-0.104,117,0
-0.273,-0.962,-0.101,117,0
-0.271,-0.959,-0.098,117,0
-0.268,-0.956,-0.097,117,0
-0.267,-0.957,-0.101,117,0
-0.266,-0.958,-0.101,117,0
-0.269,-0.958,-0.098,117,0
-0.278,-0.955,-0.097,117,0
-0.284,-0.951,-0.1,117,0
-0.277,-0.951,-0.104,117,0
-0.266,-0.956,-0.102,117,0
-0.261,-0.959,-0.099,117,0
-0.261,-0.958,-0.1,117,0
-0.265,-0.952,-0.102,117,0
-0.279,-0.947,-0.102,117,0
-0.296,-0.945,-0.105,117,0
-0.303,-0.946,-0.111,117,0
-0.299,-0.951,-0.108,117,0
-0.281,-0.958,-0.1,117,0
-0.262,-0.96,-0.099,117,0
-0.253,-0.958,-0.103,117,0
-0.254,-0.958,-0.104,117,0
-0.261,-0.96,-0.106,117,0
-0.261,-0.962,-0.104,117,0
-0.256,-0.963,-0.099,117,0
-0.255,-0.962,-0.1,117,0
-0.259,-0.96,-0.105,117,0
-0.265,-0.959,-0.108,117,0
-0.267,-0.959,-0.109,117,0
-0.26,-0.959,-0.109,117,0
-0.253,-0.96,-0.108,117,0
-0.251,-0.962,-0.108,117,0
-0.251,-0.96,-0.107,117,0
-0.252,-0.963,-0.104,117,0
-0.254,-0.966,-0.104,117,0
-0.251,-0.962,-0.103,117,0
-0.249,-0.96,-0.103,117,0
-0.249,-0.961,-0.104,117,0
-0.251,-0.961,-0.103,117,0
-0.255,-0.96,-0.099,117,0
-0.26,-0.957,-0.099,117,0
-0.262,-0.956,-0.1,117,0
-0.263,-0.958,-0.101,117,0
-0.26,-0.961,-0.101,117,0
-0.257,-0.96,-0.099,117,0
-0.256,-0.961,-0.097,117,0
-0.255,-0.966,-0.097,117,0
-0.252,-0.965,-0.097,117,0
-0.249,-0.957,-0.097,117,0
-0.253,-0.958,-0.096,117,0
-0.266,-0.96,-0.096,117,0
-0.275,-0.96,-0.096,117,0
-0.273,-0.959,-0.096,117,0
-0.265,-0.959,-0.096,117,0
-0.259,-0.959,-0.095,117,0
-0.254,-0.958,-0.093,117,0
-0.251,-0.957,-0.092,117,0
-0.254,-0.958,-0.092,117,0
-0.257,-0.962,-0.091,117,0
-0.256,-0.963,-0.09,117,0
-0.254,-0.963,-0.089,117,0
-0.254,-0.96,-0.089,117,0
-0.256,-0.957,-0.088,117,0
-0.258,-0.956,-0.088,117,0
-0.26,-0.958,-0.091,117,0
-0.263,-0.961,-0.09,117,0
-0.263,-0.958,-0.089,117,0
-0.262,-0.952,-0.089,117,0
-0.262,-0.951,-0.09,117,0
-0.262,-0.955,-0.09,117,0
-0.263,-0.963,-0.088,117,0
-0.266,-0.967,-0.089,117,0
-0.265,-0.963,-0.089,117,0
-0.261,-0.954,-0.086,117,0
-0.263,-0.952,-0.087,117,0
-0.271,-0.955,-0.089,117,0
-0.273,-0.958,-0.09,117,0
-0.267,-0.957,-0.091,117,0
-0.26,-0.955,-0.093,117,0
-0.257,-0.954,-0.094,117,0
-0.26,-0.956,-0.092,117,0
-0.266,-0.959,-0.091,117,0
-0.27,-0.957,-0.09,117,0
-0.27,-0.956,-0.09,117,0
-0.268,-0.96,-0.09,117,0
-0.267,-0.961,-0.089,117,0
-0.264,-0.96,-0.087,117,0
-0.26,-0.96,-0.087,117,0
-0.259,-0.959,-0.086,117,0
-0.261,-0.959,-0.086,117,0
-0.266,-0.958,-0.09,117,0
-0.267,-0.958,-0.092,117,0
-0.264,-0.957,-0.09,117,0
-0.262,-0.957,-0.087,117,0
-0.259,-0.957,-0.089,117,0
-0.261,-0.957,-0.093,117,0
-0.265,-0.958,-0.096,117,0
-0.268,-0.957,-0.097,117,0
-0.268,-0.954,-0.097,117,0
-0.268,-0.952,-0.097,117,0
-0.275,-0.949,-0.101,117,0
-0.283,-0.947,-0.107,117,0
-0.284,-0.947,-0.112,117,0
-0.278,-0.949,-0.115,117,0
-0.271,-0.953,-0.117,117,0
-0.271,-0.954,-0.119,117,0
-0.272,-0.954,-0.122,117,0
-0.274,-0.952,-0.128,117,0
-0.28,-0.95,-0.133,117,0
-0.285,-0.951,-0.135,117,0
-0.29,-0.95,-0.138,117,0
-0.296,-0.946,-0.145,117,0
-0.303,-0.942,-0.149,117,0
-0.315,-0.939,-0.151,117,0
-0.316,-0.946,-0.154,117,0
-0.297,-0.957,-0.147,117,0
-0.274,-0.951,-0.135,117,0
-0.274,-0.942,-0.127,117,0
-0.309,-0.951,-0.123,117,0
-0.334,-0.966,-0.126,117,0
-0.321,-0.978,-0.122,117,0
-0.291,-0.988,-0.108,117,0
-0.268,-0.987,-0.106,117,0
-0.264,-0.961,-0.114,117,0
-0.265,-0.931,-0.116,117,0
-0.275,-0.934,-0.1,117,0
-0.297,-0.957,-0.074,117,0
-0.309,-0.965,-0.065,117,0
-0.295,-0.947,-0.074,117,0
-0.269,-0.922,-0.08,117,0
-0.248,-0.921,-0.064,117,0
-0.241,-0.939,-0.039,117,0
-0.262,-0.964,-0.021,115,0
-0.296,-0.987,-0.016,115,0
-0.299,-0.978,-0.025,115,0
-0.264,-0.94,-0.038,115,0
-0.223,-0.92,-0.033,115,0
-0.205,-0.939,-0.024,115,0
-0.212,-0.974,-0.015,115,0
-0.225,-0.979,0.007,115,0
-0.238,-0.951,0.015,115,0
-0.248,-0.94,0.001,115,0
-0.255,-0.959,-0.004,114,0
-0.255,-0.984,0.004,114,0
-0.24,-0.996,0.014,114,0
-0.211,-0.989,0.015,114,0
-0.185,-0.971,0.02,114,0
-0.182,-0.959,0.031,114,0
-0.208,-0.961,0.031,114,0
-0.222,-0.969,0.027,114,0
-0.201,-0.975,0.035,114,0
-0.17,-0.98,0.041,114,0
-0.149,-0.981,0.035,112,0
-0.151,-0.983,0.034,112,0
-0.148,-0.981,0.031,112,0
-0.133,-0.975,0.025,112,0
-0.115,-0.975,0.025,112,0
-0.09,-0.977,0.027,112,0
-0.078,-0.977,0.027,112,0
-0.08,-0.977,0.023,112,0
-0.085,-0.98,0.021,112,0
-0.086,-0.982,0.022,112,0
-0.079,-0.98,0.022,110,0
-0.074,-0.972,0.019,110,0
-0.077,-0.969,0.017,110,0
-0.087,-0.979,0.018,110,0
-0.097,-0.975,0.016,110,0
-0.106,-0.961,0.005,110,0
-0.116,-0.967,-0.005,110,0
-0.124,-0.991,-0.006,110,0
-0.127,-1.003,-0.004,110,0
-0.125,-1.001,-0.006,110,0
-0.125,-0.997,-0.009,109,0
-0.133,-0.991,-0.014,109,0
-0.14,-0.988,-0.022,109,0
-0.139,-0.986,-0.032,109,0
-0.136,-0.983,-0.039,109,0
-0.14,-0.982,-0.041,109,0
-0.153,-0.982,-0.045,109,0
-0.174,-0.983,-0.049,109,0
-0.188,-0.982,-0.056,109,0
-0.197,-0.981,-0.064,109,0
-0.202,-0.982,-0.071,110,0
-0.194,-0.986,-0.078,110,0
-0.176,-0.987,-0.079,110,0
-0.158,-0.983,-0.079,110,0
-0.153,-0.979,-0.084,110,0
-0.161,-0.979,-0.091,110,0
-0.179,-0.981,-0.091,110,0
-0.195,-0.982,-0.09,110,0
-0.191,-0.983,-0.096,110,0
-0.175,-0.98,-0.1,110,0
-0.169,-0.97,-0.101,111,0
-0.18,-0.965,-0.103,111,0
-0.195,-0.971,-0.107,111,0
-0.2,-0.976,-0.107,111,0
-0.196,-0.979,-0.103,111,0
-0.194,-0.983,-0.1,111,0
-0.196,-0.982,-0.1,111,0
-0.198,-0.979,-0.102,111,0
-0.2,-0.977,-0.103,111,0
-0.202,-0.979,-0.104,111,0
-0.202,-0.98,-0.108,112,0
-0.202,-0.981,-0.112,112,0
-0.206,-0.979,-0.11,112,0
-0.211,-0.975,-0.107,112,0
-0.215,-0.973,-0.105,112,0
-0.218,-0.973,-0.103,112,0
-0.224,-0.975,-0.1,112,0
-0.224,-0.972,-0.105,112,0
-0.214,-0.969,-0.111,112,0
-0.207,-0.974,-0.107,112,0
-0.207,-0.977,-0.109,110,0
-0.204,-0.97,-0.117,110,0
-0.194,-0.963,-0.122,110,0
-0.194,-0.968,-0.12,110,0
-0.202,-0.977,-0.12,110,0
-0.203,-0.98,-0.123,110,0
-0.197,-0.978,-0.123,110,0
-0.19,-0.974,-0.121,110,0
-0.192,-0.972,-0.119,110,0
-0.208,-0.972,-0.117,110,0
-0.223,-0.973,-0.116,111,0
-0.23,-0.975,-0.117,111,0
-0.232,-0.975,-0.12,111,0
-0.221,-0.974,-0.122,111,0
-0.21,-0.969,-0.127,111,0
-0.215,-0.967,-0.125,111,0
-0.229,-0.968,-0.114,111,0
-0.238,-0.964,-0.108,111,0
-0.242,-0.959,-0.11,111,0
-0.245,-0.964,-0.112,111,0
-0.246,-0.969,-0.111,111,0
-0.244,-0.968,-0.11,111,0
-0.241,-0.966,-0.113,111,0
-0.24,-0.964,-0.118,111,0
-0.241,-0.968,-0.122,111,0
-0.239,-0.968,-0.124,111,0
-0.226,-0.963,-0.124,111,0
-0.211,-0.963,-0.125,111,0
-0.213,-0.968,-0.124,111,0
-0.228,-0.967,-0.122,111,0
-0.236,-0.963,-0.119,112,0
-0.239,-0.968,-0.12,112,0
-0.235,-0.97,-0.122,112,0
-0.219,-0.968,-0.122,112,0
-0.21,-0.973,-0.116,112,0
-0.216,-0.971,-0.112,112,0
-0.227,-0.966,-0.114,112,0
-0.236,-0.969,-0.122,112,0
-0.232,-0.971,-0.129,112,0
-0.217,-0.973,-0.124,112,0
-0.214,-0.976,-0.111,112,0
-0.225,-0.974,-0.108,112,0
-0.231,-0.959,-0.116,112,0
-0.233,-0.95,-0.116,112,0
-0.238,-0.955,-0.104,112,0
-0.244,-0.961,-0.101,112,0
-0.246,-0.962,-0.104,112,0
-0.246,-0.961,-0.102,112,0
-0.247,-0.958,-0.101,112,0
-0.246,-0.957,-0.106,112,0
-0.247,-0.963,-0.106,113,0
-0.253,-0.971,-0.103,113,0
-0.255,-0.975,-0.1,113,0
-0.244,-0.977,-0.095,113,0
-0.216,-0.976,-0.097,113,0
-0.179,-0.963,-0.106,113,0
-0.165,-0.95,-0.112,113,0
-0.198,-0.949,-0.105,113,0
-0.26,-0.961,-0.094,113,0
-0.303,-0.974,-0.097,113,0
-0.311,-0.975,-0.111,111,0
-0.289,-0.972,-0.118,111,0
-0.247,-0.974,-0.112,111,0
-0.197,-0.977,-0.098,111,0
-0.162,-0.983,-0.092,111,0
-0.159,-0.979,-0.101,111,0
-0.18,-0.964,-0.112,111,0
-0.206,-0.957,-0.11,111,0
-0.223,-0.961,-0.097,111,0
-0.231,-0.969,-0.087,111,0
-0.238,-0.97,-0.082,112,0
-0.243,-0.964,-0.078,112,0
-0.24,-0.959,-0.078,112,0
-0.233,-0.965,-0.08,112,0
-0.231,-0.971,-0.079,112,0
-0.234,-0.967,-0.08,112,0
-0.239,-0.964,-0.078,112,0
-0.246,-0.965,-0.072,112,0
-0.252,-0.965,-0.074,112,0
-0.254,-0.963,-0.082,112,0
-0.254,-0.962,-0.082,111,0
-0.252,-0.963,-0.076,111,0
-0.251,-0.965,-0.073,111,0
-0.248,-0.964,-0.08,111,0
-0.242,-0.962,-0.089,111,0
-0.238,-0.96,-0.089,111,0
-0.241,-0.96,-0.083,111,0
-0.255,-0.96,-0.08,111,0
-0.275,-0.955,-0.083,111,0
-0.284,-0.951,-0.089,111,0
-0.276,-0.951,-0.092,109,0
-0.262,-0.957,-0.091,109,0
-0.254,-0.962,-0.09,109,0
-0.251,-0.965,-0.092,109,0
-0.25,-0.967,-0.093,109,0
-0.248,-0.967,-0.093,109,0
-0.244,-0.968,-0.09,109,0
-0.241,-0.967,-0.088,109,0
-0.232,-0.958,-0.095,109,0
-0.219,-0.958,-0.107,109,0
-0.209,-0.97,-0.114,108,0
-0.206,-0.982,-0.112,108,0
-0.21,-0.981,-0.104,108,0
-0.214,-0.974,-0.101,108,0
-0.216,-0.972,-0.104,108,0
-0.218,-0.971,-0.107,108,0
-0.223,-0.968,-0.109,108,0
-0.229,-0.972,-0.11,108,0
-0.23,-0.977,-0.106,108,0
-0.223,-0.978,-0.106,108,0
-0.213,-0.978,-0.108,106,0
-0.209,-0.977,-0.107,106,0
-0.214,-0.972,-0.105,106,0
-0.22,-0.969,-0.107,106,0
-0.223,-0.971,-0.11,106,0
-0.221,-0.973,-0.11,106,0
-0.215,-0.972,-0.11,106,0
-0.214,-0.969,-0.108,106,0
-0.218,-0.969,-0.109,106,0
-0.219,-0.971,-0.11,106,0
-0.216,-0.972,-0.107,104,0
-0.212,-0.971,-0.107,104,0
-0.21,-0.972,-0.108,104,0
-0.211,-0.974,-0.109,104,0
-0.215,-0.971,-0.11,104,0
-0.217,-0.965,-0.11,104,0
-0.215,-0.966,-0.109,104,0
-0.213,-0.971,-0.109,104,0
-0.213,-0.975,-0.108,104,0
-0.211,-0.975,-0.107,104,0
-0.207,-0.975,-0.108,103,0
-0.202,-0.977,-0.108,103,0
-0.201,-0.979,-0.108,103,0
-0.204,-0.977,-0.108,103,0
-0.206,-0.974,-0.109,103,0
-0.207,-0.973,-0.11,103,0
-0.204,-0.977,-0.105,103,0
-0.2,-0.981,-0.096,103,0
-0.201,-0.977,-0.099,103,0
-0.204,-0.965,-0.113,103,0
-0.213,-0.961,-0.115,104,0
-0.225,-0.968,-0.101,104,0
-0.222,-0.973,-0.093,104,0
-0.215,-0.972,-0.102,104,0
-0.215,-0.972,-0.107,104,0
-0.213,-0.974,-0.103,104,0
-0.21,-0.976,-0.097,104,0
-0.215,-0.976,-0.1,104,0
-0.218,-0.975,-0.104,104,0
-0.214,-0.975,-0.103,104,0
-0.208,-0.976,-0.103,106,0
-0.205,-0.976,-0.104,106,0
-0.207,-0.975,-0.106,106,0
-0.207,-0.975,-0.109,106,0
-0.205,-0.975,-0.108,106,0
-0.203,-0.976,-0.104,106,0
-0.204,-0.977,-0.099,106,0
-0.212,-0.975,-0.102,106,0
-0.22,-0.969,-0.109,106,0
-0.214,-0.972,-0.105,106,0
-0.204,-0.976,-0.103,108,0
-0.203,-0.974,-0.109,108,0
-0.204,-0.975,-0.111,108,0
-0.204,-0.978,-0.108,108,0
-0.204,-0.976,-0.107,108,0
-0.202,-0.974,-0.109,108,0
-0.201,-0.973,-0.11,108,0
-0.205,-0.974,-0.111,108,0
-0.209,-0.975,-0.109,108,0
-0.209,-0.977,-0.107,108,0
-0.209,-0.976,-0.106,109,0
-0.212,-0.973,-0.106,109,0
-0.216,-0.973,-0.107,109,0
-0.217,-0.975,-0.107,109,0
-0.214,-0.976,-0.106,109,0
-0.212,-0.975,-0.106,109,0
-0.213,-0.971,-0.106,109,0
-0.215,-0.971,-0.106,109,0
-0.218,-0.971,-0.108,109,0
-0.218,-0.968,-0.109,109,0
-0.214,-0.97,-0.111,111,0
-0.21,-0.976,-0.113,111,0
-0.208,-0.981,-0.111,111,0
-0.204,-0.982,-0.106,111,0
-0.199,-0.98,-0.102,111,0
-0.192,-0.975,-0.104,111,0
-0.182,-0.971,-0.109,111,0
-0.171,-0.969,-0.111,111,0
-0.175,-0.969,-0.11,111,0
-0.197,-0.97,-0.105,111,0
-0.22,-0.971,-0.099,112,0
-0.236,-0.972,-0.094,112,0
-0.246,-0.97,-0.091,112,0
-0.249,-0.967,-0.091,112,0
-0.246,-0.963,-0.093,112,0
-0.243,-0.958,-0.098,112,0
-0.242,-0.955,-0.103,112,0
-0.245,-0.956,-0.102,112,0
-0.249,-0.956,-0.099,112,0
-0.253,-0.962,-0.096,112,0
-0.257,-0.97,-0.098,114,0
-0.257,-0.973,-0.099,114,0
-0.253,-0.969,-0.096,114,0
-0.244,-0.962,-0.098,114,0
-0.235,-0.96,-0.104,114,0
-0.228,-0.963,-0.108,114,0
-0.224,-0.964,-0.108,114,0
-0.226,-0.964,-0.107,114,0
-0.23,-0.965,-0.106,114,0
-0.231,-0.968,-0.103,114,0
-0.228,-0.972,-0.101,115,0
-0.227,-0.974,-0.101,115,0
-0.224,-0.971,-0.101,115,0
-0.222,-0.97,-0.101,115,0
-0.225,-0.97,-0.099,115,0
-0.228,-0.97,-0.102,115,0
-0.231,-0.969,-0.104,115,0
-0.235,-0.968,-0.102,115,0
-0.237,-0.968,-0.101,115,0
-0.238,-0.969,-0.101,115,0
-0.24,-0.972,-0.1,116,0
-0.241,-0.971,-0.099,116,0
-0.234,-0.962,-0.104,116,0
-0.223,-0.961,-0.111,116,0
-0.222,-0.969,-0.106,116,0
-0.235,-0.971,-0.094,116,0
-0.246,-0.97,-0.092,116,0
-0.245,-0.969,-0.098,116,0
-0.231,-0.968,-0.107,116,0
-0.213,-0.971,-0.109,116,0
-0.208,-0.975,-0.101,117,0
-0.218,-0.978,-0.086,117,0
-0.229,-0.98,-0.079,117,0
-0.237,-0.971,-0.097,117,0
-0.237,-0.962,-0.115,117,0
-0.237,-0.964,-0.104,117,0
-0.232,-0.962,-0.086,117,0
-0.225,-0.964,-0.09,117,0
-0.219,-0.972,-0.104,117,0
-0.202,-0.976,-0.107,117,0
-0.19,-0.976,-0.095,118,0
-0.202,-0.973,-0.09,118,0
-0.223,-0.969,-0.098,118,0
-0.224,-0.968,-0.104,118,0
-0.206,-0.972,-0.108,118,0
-0.197,-0.973,-0.11,118,0
-0.201,-0.973,-0.103,118,0
-0.215,-0.978,-0.098,118,0
-0.231,-0.977,-0.104,118,0
-0.234,-0.973,-0.108,118,0
-0.222,-0.973,-0.103,118,0
-0.216,-0.968,-0.104,118,0
-0.221,-0.963,-0.11,118,0
-0.23,-0.96,-0.11,118,0
-0.236,-0.96,-0.108,118,0
-0.238,-0.961,-0.109,118,0
-0.239,-0.965,-0.107,118,0
-0.241,-0.972,-0.101,118,0
-0.241,-0.974,-0.101,118,0
-0.234,-0.971,-0.107,118,0
-0.224,-0.972,-0.112,118,0
-0.215,-0.974,-0.11,118,0
-0.215,-0.971,-0.108,118,0
-0.219,-0.97,-0.11,118,0
-0.223,-0.974,-0.112,118,0
-0.219,-0.976,-0.111,118,0
-0.209,-0.974,-0.11,118,0
-0.198,-0.972,-0.11,118,0
-0.192,-0.975,-0.112,118,0
-0.198,-0.977,-0.11,118,0
-0.212,-0.975,-0.105,118,0
-0.224,-0.973,-0.104,118,0
-0.229,-0.972,-0.108,118,0
-0.229,-0.97,-0.106,118,0
-0.229,-0.969,-0.103,118,0
-0.231,-0.969,-0.104,118,0
-0.233,-0.97,-0.107,118,0
-0.234,-0.97,-0.105,118,0
-0.235,-0.968,-0.103,118,0
-0.236,-0.967,-0.104,118,0
-0.235,-0.966,-0.106,118,0
-0.231,-0.967,-0.105,118,0
-0.227,-0.968,-0.105,118,0
-0.224,-0.971,-0.107,118,0
-0.226,-0.972,-0.106,118,0
-0.228,-0.968,-0.105,118,0
-0.229,-0.968,-0.105,118,0
-0.227,-0.97,-0.106,118,0
-0.225,-0.972,-0.104,118,0
-0.228,-0.972,-0.101,118,0
-0.232,-0.969,-0.103,119,0
-0.23,-0.968,-0.106,119,0
-0.224,-0.968,-0.107,119,0
-0.22,-0.967,-0.107,119,0
-0.222,-0.965,-0.108,119,0
-0.227,-0.966,-0.109,119,0
-0.231,-0.969,-0.112,119,0
-0.226,-0.971,-0.116,119,0
-0.215,-0.964,-0.114,119,0
-0.22,-0.956,-0.099,119,0
-0.24,-0.959,-0.095,119,0
-0.25,-0.966,-0.11,119,0
-0.247,-0.973,-0.119,119,0
-0.231,-0.975,-0.113,119,0
-0.214,-0.97,-0.109,119,0
-0.212,-0.969,-0.113,119,0
-0.219,-0.973,-0.116,119,0
-0.224,-0.974,-0.118,119,0
-0.226,-0.971,-0.116,119,0
-0.229,-0.971,-0.114,119,0
-0.234,-0.971,-0.115,119,0
-0.239,-0.968,-0.116,119,0
-0.239,-0.966,-0.115,119,0
-0.234,-0.966,-0.114,119,0
-0.23,-0.965,-0.114,119,0
-0.23,-0.963,-0.115,119,0
-0.234,-0.964,-0.115,119,0
-0.236,-0.965,-0.112,119,0
-0.238,-0.965,-0.108,119,0
-0.241,-0.966,-0.106,119,0
-0.242,-0.969,-0.105,119,0
-0.24,-0.968,-0.108,119,0
-0.235,-0.963,-0.109,119,0
-0.233,-0.963,-0.111,119,0
-0.236,-0.966,-0.112,119,0
-0.237,-0.966,-0.11,119,0
-0.234,-0.966,-0.109,119,0
-0.233,-0.966,-0.111,119,0
-0.233,-0.965,-0.111,119,0
-0.232,-0.968,-0.11,119,0
-0.232,-0.968,-0.111,119,0
-0.234,-0.966,-0.112,119,0
-0.236,-0.967,-0.11,119,0
-0.236,-0.969,-0.108,119,0
-0.237,-0.97,-0.105,119,0
-0.236,-0.968,-0.103,119,0
-0.234,-0.965,-0.105,119,0
-0.236,-0.966,-0.109,119,0
-0.237,-0.97,-0.11,119,0
-0.233,-0.972,-0.108,119,0
-0.228,-0.967,-0.106,119,0
-0.227,-0.958,-0.108,119,0
-0.23,-0.96,-0.114,119,0
-0.231,-0.971,-0.117,119,0
-0.232,-0.97,-0.115,119,0
-0.229,-0.965,-0.113,119,0
-0.221,-0.967,-0.112,119,0
-0.217,-0.972,-0.113,119,0
-0.218,-0.976,-0.114,119,0
-0.223,-0.972,-0.114,119,0
-0.231,-0.966,-0.112,120,0
-0.238,-0.964,-0.109,120,0
-0.241,-0.964,-0.108,120,0
-0.241,-0.965,-0.111,120,0
-0.234,-0.97,-0.115,120,0
-0.227,-0.978,-0.118,120,0
-0.224,-0.98,-0.115,120,0
-0.226,-0.972,-0.111,120,0
-0.23,-0.961,-0.113,120,0
-0.232,-0.956,-0.116,120,0
-0.231,-0.959,-0.116,120,0
-0.23,-0.966,-0.115,120,0
-0.224,-0.97,-0.115,120,0
-0.216,-0.968,-0.118,120,0
-0.212,-0.968,-0.118,120,0
-0.216,-0.971,-0.111,120,0
-0.223,-0.974,-0.106,120,0
-0.226,-0.97,-0.11,120,0
-0.223,-0.966,-0.112,120,0
-0.222,-0.972,-0.109,120,0
-0.227,-0.976,-0.105,121,0
-0.233,-0.973,-0.103,121,0
-0.235,-0.968,-0.102,121,0
-0.231,-0.963,-0.104,121,0
-0.219,-0.963,-0.112,121,0
-0.202,-0.968,-0.116,121,0
-0.198,-0.974,-0.105,121,0
-0.221,-0.975,-0.089,121,0
-0.248,-0.966,-0.089,121,0
-0.258,-0.955,-0.104,121,0
-0.25,-0.951,-0.117,122,0
-0.228,-0.955,-0.117,122,0
-0.194,-0.963,-0.11,122,0
-0.177,-0.968,-0.102,122,0
-0.202,-0.97,-0.099,122,0
-0.246,-0.969,-0.098,122,0
-0.279,-0.97,-0.097,122,0
-0.287,-0.974,-0.097,122,0
-0.269,-0.977,-0.089,122,0
-0.237,-0.974,-0.082,122,0
-0.22,-0.973,-0.088,123,0
-0.226,-0.973,-0.103,123,0
-0.233,-0.967,-0.11,123,0
-0.227,-0.966,-0.102,123,0
-0.219,-0.971,-0.081,123,0
-0.225,-0.972,-0.068,123,0
-0.238,-0.968,-0.076,123,0
-0.243,-0.964,-0.09,123,0
-0.236,-0.965,-0.094,123,0
-0.222,-0.972,-0.087,123,0
-0.218,-0.974,-0.078,124,0
-0.226,-0.97,-0.077,124,0
-0.239,-0.971,-0.081,124,0
-0.242,-0.97,-0.075,124,0
-0.233,-0.966,-0.064,124,0
-0.225,-0.97,-0.058,124,0
-0.224,-0.97,-0.063,124,0
-0.229,-0.959,-0.078,124,0
-0.238,-0.955,-0.086,124,0
-0.244,-0.964,-0.078,124,0
-0.248,-0.975,-0.062,125,0
-0.256,-0.972,-0.049,125,0
-0.261,-0.954,-0.056,125,0
-0.254,-0.947,-0.073,125,0
-0.245,-0.956,-0.075,125,0
-0.243,-0.965,-0.065,125,0
-0.246,-0.967,-0.062,125,0
-0.248,-0.964,-0.068,125,0
-0.246,-0.962,-0.073,125,0
-0.24,-0.965,-0.072,125,0
-0.233,-0.972,-0.068,125,0
-0.245,-0.978,-0.06,125,0
-0.262,-0.971,-0.059,125,0
-0.26,-0.96,-0.072,125,0
-0.243,-0.96,-0.083,125,0
-0.223,-0.965,-0.083,125,0
-0.212,-0.971,-0.076,125,0
-0.215,-0.977,-0.07,125,0
-0.234,-0.976,-0.074,125,0
-0.248,-0.958,-0.084,125,0
-0.261,-0.932,-0.093,126,0
-0.286,-0.94,-0.085,126,0
-0.296,-0.98,-0.076,126,0
-0.253,-0.994,-0.087,126,0
-0.182,-0.959,-0.106,126,0
-0.148,-0.926,-0.104,126,0
-0.184,-0.933,-0.078,126,0
-0.261,-0.96,-0.062,126,0
-0.312,-0.975,-0.078,126,0
-0.321,-0.971,-0.101,126,0
-0.3,-0.956,-0.102,127,0
-0.269,-0.954,-0.093,127,0
-0.253,-0.959,-0.091,127,0
-0.254,-0.959,-0.097,127,0
-0.253,-0.957,-0.098,127,0
-0.247,-0.957,-0.097,127,0
-0.246,-0.96,-0.099,127,0
-0.247,-0.967,-0.1,127,0
-0.247,-0.964,-0.102,127,0
-0.239,-0.958,-0.103,127,0
-0.238,-0.965,-0.099,127,0
-0.257,-0.97,-0.091,127,0
-0.274,-0.958,-0.094,127,0
-0.268,-0.95,-0.104,127,0
-0.258,-0.955,-0.103,127,0
-0.255,-0.958,-0.094,127,0
-0.252,-0.959,-0.097,127,0
-0.25,-0.963,-0.102,127,0
-0.253,-0.967,-0.096,127,0
-0.256,-0.96,-0.096,127,0
-0.259,-0.954,-0.106,127,0
-0.26,-0.961,-0.103,127,0
-0.267,-0.969,-0.087,127,0
-0.27,-0.962,-0.086,127,0
-0.249,-0.952,-0.093,127,0
-0.234,-0.956,-0.1,127,0
-0.239,-0.961,-0.106,127,0
-0.244,-0.962,-0.096,127,0
-0.25,-0.958,-0.085,127,0
-0.252,-0.952,-0.094,127,0
-0.249,-0.954,-0.108,128,0
-0.245,-0.962,-0.107,128,0
-0.24,-0.964,-0.1,128,0
-0.242,-0.963,-0.098,128,0
-0.247,-0.961,-0.098,128,0
-0.248,-0.958,-0.1,128,0
-0.243,-0.964,-0.104,128,0
-0.231,-0.974,-0.102,128,0
-0.222,-0.98,-0.095,128,0
-0.22,-0.981,-0.095,128,0
-0.217,-0.979,-0.102,128,0
-0.208,-0.979,-0.109,128,0
-0.192,-0.979,-0.113,128,0
-0.18,-0.974,-0.113,128,0
-0.19,-0.966,-0.111,128,0
-0.213,-0.963,-0.107,128,0
-0.233,-0.966,-0.104,128,0
-0.241,-0.969,-0.106,128,0
-0.234,-0.966,-0.108,128,0
-0.221,-0.964,-0.113,128,0
-0.218,-0.968,-0.124,128,0
-0.225,-0.969,-0.118,128,0
-0.22,-0.969,-0.103,128,0
-0.199,-0.969,-0.1,128,0
-0.19,-0.973,-0.105,128,0
-0.196,-0.976,-0.112,128,0
-0.201,-0.977,-0.114,128,0
-0.201,-0.977,-0.117,128,0
-0.197,-0.976,-0.121,128,0
-0.195,-0.977,-0.122,128,0
-0.196,-0.975,-0.121,128,0
-0.199,-0.972,-0.124,128,0
-0.202,-0.973,-0.13,128,0
-0.202,-0.972,-0.141,128,0
-0.192,-0.968,-0.146,128,0
-0.177,-0.968,-0.141,128,0
-0.17,-0.967,-0.138,128,0
-0.178,-0.967,-0.14,128,0
-0.196,-0.968,-0.145,128,0
-0.2,-0.97,-0.156,128,0
-0.186,-0.973,-0.17,128,0
-0.163,-0.978,-0.173,128,0
-0.143,-0.98,-0.167,128,0
-0.134,-0.984,-0.165,128,0
-0.135,-0.983,-0.182,128,0
-0.148,-0.966,-0.192,128,0
-0.171,-0.952,-0.174,128,0
-0.196,-0.956,-0.155,128,0
-0.2,-0.966,-0.161,128,0
-0.176,-0.97,-0.181,128,0
-0.153,-0.973,-0.179,128,0
-0.15,-0.977,-0.159,128,0
-0.167,-0.974,-0.154,128,0
-0.181,-0.974,-0.17,128,0
-0.179,-0.977,-0.189,128,0
-0.165,-0.98,-0.193,128,0
-0.145,-0.98,-0.185,128,0
-0.133,-0.978,-0.182,128,0
-0.132,-0.974,-0.187,128,0
-0.138,-0.969,-0.191,128,0
-0.15,-0.972,-0.189,129,0
-0.166,-0.98,-0.184,129,0
-0.167,-0.984,-0.18,129,0
-0.153,-0.985,-0.173,129,0
-0.148,-0.983,-0.168,129,0
-0.159,-0.976,-0.176,129,0
-0.17,-0.973,-0.187,129,0
-0.177,-0.979,-0.182,129,0
-0.169,-0.975,-0.162,129,0
-0.167,-0.964,-0.146,129,0
-0.191,-0.967,-0.141,129,0
-0.212,-0.975,-0.152,129,0
-0.217,-0.978,-0.156,129,0
-0.202,-0.957,-0.151,129,0
-0.174,-0.928,-0.158,129,0
-0.167,-0.929,-0.155,129,0
-0.19,-0.945,-0.14,129,0
-0.227,-0.958,-0.132,129,0
-0.255,-0.959,-0.132,129,0
-0.273,-0.946,-0.134,129,0
-0.288,-0.949,-0.132,129,0
-0.289,-0.965,-0.12,129,0
-0.277,-0.968,-0.119,129,0
-0.262,-0.962,-0.129,129,0
-0.251,-0.947,-0.129,129,0
-0.248,-0.926,-0.121,129,0
-0.256,-0.929,-0.115,129,0
-0.271,-0.947,-0.115,129,0
-0.285,-0.956,-0.124,129,0
-0.296,-0.954,-0.139,129,0
-0.292,-0.955,-0.155,129,0
-0.278,-0.963,-0.155,129,0
-0.266,-0.965,-0.143,129,0
-0.265,-0.966,-0.131,129,0
-0.27,-0.96,-0.125,129,0
-0.274,-0.937,-0.123,129,0
-0.287,-0.926,-0.123,129,0
-0.302,-0.936,-0.127,129,0
-0.304,-0.947,-0.133,129,0
-0.293,-0.96,-0.135,129,0
-0.272,-0.972,-0.132,129,0
-0.249,-0.972,-0.128,129,0
-0.235,-0.962,-0.127,129,0
-0.237,-0.95,-0.125,129,0
-0.248,-0.946,-0.12,129,0
-0.265,-0.95,-0.112,129,0
-0.283,-0.952,-0.109,129,0
-0.291,-0.953,-0.117,129,0
-0.292,-0.951,-0.128,129,0
-0.286,-0.949,-0.13,129,0
-0.277,-0.949,-0.123,130,0
-0.27,-0.953,-0.117,130,0
-0.262,-0.955,-0.118,130,0
-0.257,-0.958,-0.122,130,0
-0.261,-0.96,-0.122,130,0
-0.272,-0.957,-0.12,130,0
-0.28,-0.952,-0.121,130,0
-0.275,-0.949,-0.126,130,0
-0.261,-0.952,-0.132,130,0
-0.252,-0.965,-0.129,130,0
-0.248,-0.978,-0.123,130,0
-0.247,-1.004,-0.111,130,0
-0.232,-0.994,-0.097,130,0
-0.194,-0.925,-0.115,130,0
-0.188,-0.881,-0.147,130,0
-0.232,-0.88,-0.156,130,0
-0.28,-0.905,-0.146,130,0
-0.32,-0.944,-0.123,130,0
-0.337,-0.972,-0.106,130,0
-0.317,-0.988,-0.104,130,0
-0.286,-0.988,-0.111,130,0
-0.253,-0.972,-0.121,130,0
-0.215,-0.964,-0.127,130,0
-0.188,-0.97,-0.12,130,0
-0.195,-0.979,-0.112,130,0
-0.223,-0.98,-0.108,130,0
-0.244,-0.973,-0.105,130,0
-0.245,-0.967,-0.104,130,0
-0.234,-0.967,-0.103,130,0
-0.215,-0.971,-0.104,130,0
-0.202,-0.97,-0.106,130,0
-0.203,-0.958,-0.109,130,0
-0.213,-0.947,-0.109,130,0
-0.227,-0.943,-0.103,130,0
-0.237,-0.947,-0.094,130,0
-0.251,-0.957,-0.09,130,0
-0.268,-0.971,-0.09,130,0
-0.275,-0.976,-0.092,130,0
-0.265,-0.961,-0.09,130,0
-0.252,-0.946,-0.088,130,0
-0.248,-0.942,-0.09,130,0
-0.252,-0.946,-0.094,130,0
-0.255,-0.956,-0.101,130,0
-0.262,-0.968,-0.103,130,0
-0.266,-0.976,-0.104,130,0
-0.257,-0.98,-0.106,130,0
-0.245,-0.972,-0.106,130,0
-0.239,-0.959,-0.105,130,0
-0.242,-0.955,-0.104,130,0
-0.251,-0.955,-0.104,130,0
-0.265,-0.955,-0.101,130,0
-0.277,-0.959,-0.098,130,0
-0.275,-0.965,-0.094,130,0
-0.262,-0.959,-0.097,130,0
-0.251,-0.953,-0.104,130,0
-0.247,-0.958,-0.104,130,0
-0.247,-0.964,-0.103,130,0
-0.242,-0.968,-0.105,130,0
-0.229,-0.971,-0.106,130,0
-0.214,-0.974,-0.105,130,0
-0.196,-0.972,-0.101,130,0
-0.183,-0.969,-0.095,130,0
-0.191,-0.971,-0.096,130,0
-0.221,-0.97,-0.103,130,0
-0.243,-0.968,-0.105,130,0
-0.24,-0.971,-0.103,130,0
-0.22,-0.972,-0.105,130,0
-0.197,-0.971,-0.111,130,0
-0.177,-0.974,-0.111,130,0
-0.178,-0.978,-0.11,130,0
-0.191,-0.975,-0.111,130,0
-0.195,-0.97,-0.113,130,0
-0.19,-0.971,-0.112,130,0
-0.183,-0.977,-0.112,130,0
-0.176,-0.98,-0.114,130,0
-0.167,-0.98,-0.116,130,0
-0.165,-0.978,-0.116,130,0
-0.175,-0.977,-0.118,130,0
-0.186,-0.979,-0.117,130,0
-0.191,-0.982,-0.113,130,0
-0.199,-0.981,-0.112,130,0
-0.208,-0.974,-0.117,130,0
-0.21,-0.969,-0.121,130,0
-0.208,-0.969,-0.12,130,0
-0.206,-0.973,-0.119,130,0
-0.207,-0.978,-0.115,130,0
-0.208,-0.975,-0.113,130,0
-0.212,-0.971,-0.113,130,0
-0.219,-0.97,-0.114,130,0
-0.224,-0.967,-0.111,130,0
-0.224,-0.963,-0.109,130,0
-0.226,-0.965,-0.11,130,0
-0.231,-0.969,-0.11,130,0
-0.234,-0.97,-0.105,130,0
-0.234,-0.973,-0.101,130,0
-0.233,-0.973,-0.103,130,0
-0.231,-0.968,-0.108,130,0
-0.232,-0.964,-0.113,130,0
-0.236,-0.965,-0.115,130,0
-0.237,-0.968,-0.113,130,0
-0.231,-0.97,-0.112,130,0
-0.224,-0.969,-0.111,130,0
-0.223,-0.969,-0.11,130,0
-0.225,-0.967,-0.109,130,0
-0.229,-0.968,-0.106,130,0
-0.232,-0.97,-0.106,130,0
-0.23,-0.971,-0.109,130,0
-0.223,-0.968,-0.11,130,0
-0.216,-0.968,-0.109,130,0
-0.216,-0.971,-0.108,130,0
-0.223,-0.971,-0.108,130,0
-0.235,-0.967,-0.107,130,0
-0.237,-0.964,-0.108,130,0
-0.238,-0.964,-0.109,130,0
-0.238,-0.967,-0.109,130,0
-0.238,-0.969,-0.11,130,0
-0.234,-0.968,-0.112,130,0
-0.229,-0.967,-0.113,130,0
-0.229,-0.966,-0.113,130,0
-0.234,-0.965,-0.114,130,0
-0.237,-0.965,-0.115,130,0
-0.238,-0.964,-0.115,130,0
-0.234,-0.966,-0.114,130,0
-0.228,-0.967,-0.115,130,0
-0.225,-0.967,-0.117,130,0
-0.23,-0.968,-0.117,130,0
-0.235,-0.968,-0.119,130,0
-0.236,-0.966,-0.121,130,0
-0.231,-0.968,-0.119,130,0
-0.225,-0.971,-0.116,130,0
-0.225,-0.971,-0.114,130,0
-0.23,-0.97,-0.114,130,0
-0.235,-0.969,-0.114,130,0
-0.24,-0.972,-0.113,130,0
-0.241,-0.976,-0.111,130,0
-0.233,-0.968,-0.112,130,0
-0.217,-0.964,-0.115,130,0
-0.202,-0.965,-0.115,130,0
-0.196,-0.968,-0.114,130,0
-0.203,-0.974,-0.11,130,0
-0.217,-0.975,-0.107,130,0
-0.225,-0.973,-0.105,130,0
-0.223,-0.971,-0.104,130,0
-0.217,-0.972,-0.105,130,0
-0.211,-0.973,-0.107,130,0
-0.212,-0.974,-0.107,130,0
-0.216,-0.975,-0.108,130,0
-0.214,-0.974,-0.108,130,0
-0.212,-0.975,-0.104,130,0
-0.219,-0.979,-0.097,130,0
-0.228,-0.978,-0.094,130,0
-0.228,-0.97,-0.098,130,0
-0.22,-0.962,-0.103,130,0
-0.213,-0.962,-0.106,130,0
-0.213,-0.968,-0.11,130,0
-0.216,-0.968,-0.106,130,0
-0.224,-0.963,-0.095,130,0
-0.234,-0.965,-0.088,130,0
-0.242,-0.97,-0.084,130,0
-0.243,-0.972,-0.084,130,0
-0.232,-0.969,-0.098,130,0
-0.24,-0.971,-0.101,130,0
-0.252,-0.977,-0.083,130,0
-0.239,-0.967,-0.075,130,0
-0.226,-0.95,-0.078,130,0
-0.225,-0.949,-0.08,130,0
-0.232,-0.96,-0.079,130,0
-0.239,-0.966,-0.077,130,0
-0.244,-0.969,-0.079,130,0
-0.244,-0.974,-0.086,130,0
-0.243,-0.976,-0.092,130,0
-0.244,-0.973,-0.093,130,0
-0.24,-0.969,-0.095,130,0
-0.232,-0.971,-0.098,130,0
-0.229,-0.973,-0.097,130,0
-0.234,-0.969,-0.09,130,0
-0.238,-0.967,-0.083,130,0
-0.239,-0.966,-0.083,130,0
-0.236,-0.965,-0.082,130,0
-0.236,-0.966,-0.08,130,0
-0.235,-0.969,-0.081,130,0
-0.234,-0.967,-0.083,130,0
-0.235,-0.965,-0.081,130,0
-0.237,-0.968,-0.077,130,0
-0.241,-0.967,-0.074,130,0
-0.247,-0.962,-0.078,130,0
-0.25,-0.966,-0.083,130,0
-0.242,-0.968,-0.082,130,0
-0.233,-0.965,-0.075,130,0
-0.235,-0.963,-0.075,130,0
-0.241,-0.965,-0.083,130,0
-0.245,-0.969,-0.085,130,0
-0.242,-0.969,-0.081,130,0
-0.23,-0.968,-0.078,130,0
-0.219,-0.969,-0.079,130,0
-0.219,-0.971,-0.083,130,0
-0.228,-0.974,-0.084,130,0
-0.235,-0.971,-0.084,130,0
-0.233,-0.966,-0.089,130,0
-0.227,-0.968,-0.09,130,0
-0.226,-0.971,-0.086,130,0
-0.231,-0.975,-0.082,130,0
-0.234,-0.978,-0.082,130,0
-0.229,-0.974,-0.087,130,0
-0.218,-0.969,-0.093,130,0
-0.21,-0.968,-0.098,130,0
-0.209,-0.97,-0.099,130,0
-0.216,-0.973,-0.096,130,0
-0.226,-0.972,-0.093,130,0
-0.233,-0.972,-0.094,130,0
-0.237,-0.973,-0.097,130,0
-0.231,-0.973,-0.098,130,0
-0.222,-0.973,-0.096,130,0
-0.224,-0.968,-0.096,130,0
-0.232,-0.965,-0.097,130,0
-0.236,-0.968,-0.097,130,0
-0.234,-0.973,-0.096,130,0
-0.229,-0.973,-0.095,130,0
-0.221,-0.969,-0.096,130,0
-0.212,-0.964,-0.099,130,0
-0.213,-0.967,-0.1,130,0
-0.224,-0.975,-0.098,130,0
-0.23,-0.978,-0.097,130,0
-0.22,-0.975,-0.101,130,0
-0.201,-0.975,-0.1,130,0
-0.195,-0.977,-0.098,130,0
-0.201,-0.977,-0.097,130,0
-0.209,-0.974,-0.097,130,0
-0.209,-0.974,-0.096,130,0
-0.207,-0.975,-0.096,130,0
-0.211,-0.974,-0.097,130,0
-0.219,-0.974,-0.099,130,0
-0.22,-0.97,-0.1,130,0
-0.217,-0.968,-0.096,130,0
-0.218,-0.971,-0.092,130,0
-0.22,-0.972,-0.092,130,0
-0.219,-0.974,-0.092,130,0
-0.22,-0.978,-0.09,130,0
-0.22,-0.974,-0.088,130,0
-0.215,-0.963,-0.095,130,0
-0.213,-0.965,-0.099,129,0
-0.222,-0.974,-0.09,129,0
-0.234,-0.98,-0.077,129,0
-0.238,-0.979,-0.072,129,0
-0.23,-0.964,-0.081,129,0
-0.217,-0.955,-0.096,129,0
-0.218,-0.963,-0.097,129,0
-0.229,-0.974,-0.082,129,0
-0.238,-0.978,-0.071,129,0
-0.233,-0.969,-0.081,129,0
-0.215,-0.961,-0.101,129,0
-0.203,-0.966,-0.103,129,0
-0.208,-0.975,-0.092,129,0
-0.216,-0.979,-0.085,129,0
-0.215,-0.976,-0.091,129,0
-0.216,-0.965,-0.103,129,0
-0.224,-0.961,-0.106,129,0
-0.232,-0.964,-0.098,129,0
-0.235,-0.97,-0.09,129,0
-0.232,-0.97,-0.092,129,0
-0.225,-0.968,-0.098,129,0
-0.223,-0.966,-0.099,129,0
-0.226,-0.968,-0.104,129,0
-0.235,-0.973,-0.107,129,0
-0.241,-0.969,-0.103,129,0
-0.23,-0.966,-0.099,129,0
-0.208,-0.972,-0.101,129,0
-0.192,-0.977,-0.101,129,0
-0.194,-0.976,-0.098,129,0
-0.208,-0.972,-0.1,129,0
-0.223,-0.973,-0.105,129,0
-0.229,-0.977,-0.108,129,0
-0.227,-0.978,-0.108,129,0
-0.223,-0.975,-0.106,129,0
-0.219,-0.974,-0.108,129,0
-0.214,-0.973,-0.11,129,0
-0.209,-0.972,-0.11,129,0
-0.205,-0.973,-0.108,129,0
-0.207,-0.974,-0.106,129,0
-0.211,-0.975,-0.108,129,0
-0.213,-0.973,-0.111,129,0
-0.217,-0.969,-0.11,129,0
-0.222,-0.968,-0.108,129,0
-0.224,-0.971,-0.108,129,0
-0.222,-0.974,-0.11,129,0
-0.22,-0.975,-0.113,129,0
-0.215,-0.976,-0.117,129,0
-0.205,-0.977,-0.119,129,0
-0.206,-0.973,-0.112,129,0
-0.223,-0.971,-0.101,129,0
-0.237,-0.966,-0.099,129,0
-0.236,-0.959,-0.109,129,0
-0.224,-0.965,-0.112,129,0
-0.212,-0.974,-0.106,129,0
-0.206,-0.976,-0.107,129,0
-0.209,-0.973,-0.111,129,0
-0.219,-0.969,-0.112,129,0
-0.222,-0.969,-0.109,129,0
-0.221,-0.968,-0.106,129,0
-0.222,-0.976,-0.108,129,0
-0.224,-0.988,-0.108,128,0
-0.221,-0.973,-0.103,128,0
-0.219,-0.951,-0.098,128,0
-0.227,-0.948,-0.099,128,0
-0.233,-0.954,-0.102,128,0
-0.234,-0.961,-0.103,128,0
-0.224,-0.969,-0.101,128,0
-0.212,-0.976,-0.101,128,0
-0.208,-0.978,-0.103,128,0
-0.214,-0.977,-0.104,128,0
-0.224,-0.974,-0.104,128,0
-0.229,-0.97,-0.104,128,0
-0.228,-0.97,-0.107,128,0
-0.226,-0.97,-0.109,128,0
-0.226,-0.968,-0.108,128,0
-0.226,-0.967,-0.104,128,0
-0.229,-0.967,-0.099,128,0
-0.238,-0.967,-0.098,128,0
-0.242,-0.968,-0.107,128,0
-0.237,-0.971,-0.115,128,0
-0.227,-0.971,-0.113,128,0
-0.216,-0.97,-0.104,128,0
-0.216,-0.966,-0.095,128,0
-0.227,-0.962,-0.096,128,0
-0.238,-0.962,-0.102,128,0
-0.241,-0.967,-0.104,128,0
-0.24,-0.971,-0.103,128,0
-0.234,-0.971,-0.104,128,0
-0.229,-0.968,-0.109,128,0
-0.231,-0.966,-0.112,128,0
-0.237,-0.967,-0.113,128,0
-0.237,-0.969,-0.111,128,0
-0.232,-0.972,-0.109,128,0
-0.231,-0.97,-0.107,128,0
-0.233,-0.966,-0.108,128,0
-0.235,-0.964,-0.109,128,0
-0.238,-0.965,-0.111,128,0
-0.238,-0.966,-0.111,128,0
-0.235,-0.968,-0.107,128,0
-0.235,-0.968,-0.105,128,0
-0.24,-0.967,-0.107,128,0
-0.244,-0.969,-0.106,128,0
-0.242,-0.969,-0.101,128,0
-0.232,-0.963,-0.1,128,0
-0.228,-0.956,-0.106,128,0
-0.229,-0.956,-0.113,128,0
-0.223,-0.954,-0.12,128,0
-0.221,-0.952,-0.124,128,0
-0.232,-0.958,-0.121,128,0
-0.246,-0.967,-0.115,128,0
-0.251,-0.977,-0.106,127,0
-0.245,-0.978,-0.1,127,0
-0.235,-0.97,-0.102,127,0
-0.224,-0.967,-0.11,127,0
-0.214,-0.973,-0.115,127,0
-0.214,-0.977,-0.115,127,0
-0.222,-0.976,-0.114,127,0
-0.231,-0.972,-0.112,127,0
-0.23,-0.969,-0.112,127,0
-0.222,-0.968,-0.111,127,0
-0.224,-0.971,-0.112,127,0
-0.232,-0.971,-0.113,127,0
-0.234,-0.97,-0.114,127,0
-0.23,-0.969,-0.113,127,0
-0.225,-0.968,-0.112,127,0
-0.227,-0.966,-0.11,127,0
-0.234,-0.964,-0.109,127,0
-0.24,-0.963,-0.111,127,0
-0.238,-0.962,-0.113,127,0
-0.232,-0.965,-0.112,127,0
-0.231,-0.968,-0.109,127,0
-0.235,-0.968,-0.109,127,0
-0.238,-0.967,-0.109,127,0
-0.238,-0.966,-0.106,127,0
-0.239,-0.966,-0.104,127,0
-0.242,-0.966,-0.107,127,0
-0.244,-0.966,-0.109,127,0
-0.244,-0.964,-0.109,127,0
-0.243,-0.961,-0.108,127,0
-0.243,-0.96,-0.108,127,0
-0.243,-0.962,-0.108,127,0
-0.244,-0.966,-0.104,127,0
-0.246,-0.967,-0.101,127,0
-0.249,-0.965,-0.1,127,0
-0.247,-0.962,-0.103,127,0
-0.243,-0.961,-0.104,127,0
-0.24,-0.962,-0.104,127,0
-0.241,-0.965,-0.101,127,0
-0.241,-0.966,-0.101,127,0
-0.241,-0.962,-0.104,127,0
-0.243,-0.962,-0.105,127,0
-0.249,-0.966,-0.101,127,0
-0.252,-0.968,-0.096,127,0
-0.249,-0.965,-0.095,127,0
-0.245,-0.958,-0.097,127,0
-0.246,-0.958,-0.102,127,0
-0.247,-0.962,-0.104,127,0
-0.242,-0.966,-0.103,127,0
-0.237,-0.967,-0.102,127,0
-0.237,-0.963,-0.104,127,0
-0.241,-0.961,-0.106,126,0
-0.244,-0.962,-0.106,126,0
-0.245,-0.963,-0.105,126,0
-0.244,-0.964,-0.105,126,0
-0.244,-0.963,-0.105,126,0
-0.245,-0.961,-0.104,126,0
-0.249,-0.96,-0.105,126,0
-0.251,-0.958,-0.107,126,0
-0.251,-0.96,-0.109,126,0
-0.25,-0.967,-0.107,126,0
-0.25,-0.975,-0.101,126,0
-0.25,-0.981,-0.094,126,0
-0.248,-0.983,-0.092,126,0
-0.236,-0.981,-0.094,126,0
-0.2,-0.968,-0.107,126,0
-0.15,-0.938,-0.125,126,0
-0.126,-0.917,-0.132,126,0
-0.141,-0.923,-0.124,126,0
-0.185,-0.941,-0.113,126,0
-0.242,-0.958,-0.109,126,0
-0.284,-0.969,-0.112,126,0
-0.304,-0.974,-0.112,126,0
-0.306,-0.973,-0.117,126,0
-0.289,-0.972,-0.126,126,0
-0.26,-0.974,-0.133,126,0
-0.225,-0.978,-0.139,126,0
-0.201,-0.978,-0.139,126,0
-0.203,-0.969,-0.136,126,0
-0.218,-0.967,-0.136,126,0
-0.225,-0.97,-0.141,126,0
-0.214,-0.967,-0.151,126,0
-0.191,-0.968,-0.162,126,0
-0.175,-0.974,-0.168,126,0
-0.171,-0.975,-0.166,126,0
-0.178,-0.973,-0.157,126,0
-0.197,-0.964,-0.15,126,0
-0.219,-0.95,-0.151,126,0
-0.238,-0.949,-0.146,126,0
-0.252,-0.958,-0.137,126,0
-0.252,-0.969,-0.136,126,0
-0.241,-0.969,-0.142,125,0
-0.225,-0.969,-0.148,125,0
-0.209,-0.973,-0.153,125,0
-0.21,-0.972,-0.151,125,0
-0.231,-0.967,-0.147,125,0
-0.256,-0.959,-0.151,125,0
-0.266,-0.95,-0.16,125,0
-0.262,-0.95,-0.164,125,0
-0.256,-0.953,-0.159,125,0
-0.248,-0.954,-0.158,125,0
-0.237,-0.956,-0.172,125,0
-0.222,-0.958,-0.188,125,0
-0.209,-0.969,-0.183,125,0
-0.207,-0.975,-0.163,125,0
-0.209,-0.968,-0.156,125,0
-0.206,-0.963,-0.166,125,0
-0.201,-0.977,-0.172,125,0
-0.199,-0.991,-0.166,125,0
-0.199,-0.984,-0.159,125,0
-0.192,-0.967,-0.168,125,0
-0.173,-0.969,-0.191,125,0
-0.138,-0.992,-0.196,125,0
-0.1,-1.018,-0.18,125,0
-0.095,-1.025,-0.18,125,0
-0.109,-1.01,-0.201,125,0
-0.112,-0.981,-0.21,125,0
-0.102,-0.962,-0.211,125,0
-0.089,-0.958,-0.205,125,0
-0.092,-0.941,-0.185,125,0
-0.108,-0.926,-0.184,125,0
-0.12,-0.942,-0.198,125,0
-0.079,-0.988,-0.192,125,0
-0.018,-1.074,-0.155,125,0
-0.005,-1.121,-0.117,125,0
-0.023,-1.067,-0.109,125,0
-0.046,-0.97,-0.112,125,0
-0.046,-0.918,-0.107,125,0
-0.01,-0.941,-0.078,125,0
0.035,-0.977,-0.049,125,0
0.056,-0.98,-0.057,125,0
0.06,-0.959,-0.072,125,0
0.07,-0.944,-0.069,125,0
0.058,-0.95,-0.049,125,0
0.001,-0.96,-0.027,125,0
-0.063,-0.966,-0.011,125,0
-0.114,-0.96,0,125,0
-0.136,-0.955,0,125,0
-0.136,-0.966,-0.003,125,0
-0.122,-0.985,-0.009,125,0
-0.082,-0.992,-0.011,125,0
-0.037,-0.986,0.003,124,0
-0.038,-0.985,0.019,124,0
-0.092,-0.994,0.008,124,0
-0.129,-0.999,-0.011,124,0
-0.119,-0.997,-0.011,124,0
-0.103,-0.995,-0.005,124,0
-0.092,-0.986,-0.01,124,0
-0.078,-0.977,-0.017,124,0
-0.079,-0.986,-0.026,124,0
-0.1,-0.995,-0.031,124,0
-0.129,-0.974,-0.041,124,0
-0.163,-0.947,-0.054,124,0
-0.196,-0.947,-0.046,124,0
-0.214,-0.965,-0.031,124,0
-0.219,-0.977,-0.036,124,0
-0.22,-0.984,-0.053,124,0
-0.218,-0.993,-0.065,124,0
-0.204,-0.998,-0.065,124,0
-0.195,-0.995,-0.066,124,0
-0.18,-0.993,-0.082,124,0
-0.155,-1.004,-0.106,124,0
-0.138,-1.017,-0.105,124,0
-0.129,-1.009,-0.076,124,0
-0.128,-0.985,-0.059,124,0
-0.146,-0.968,-0.054,124,0
-0.174,-0.968,-0.06,124,0
-0.178,-0.975,-0.083,124,0
-0.181,-0.978,-0.091,124,0
-0.171,-0.982,-0.074,124,0
-0.121,-0.976,-0.048,124,0
-0.086,-0.965,-0.017,124,0
-0.109,-0.97,0.002,124,0
-0.172,-0.976,0.005,124,0
-0.225,-0.979,0.005,124,0
-0.246,-0.982,0.001,124,0
-0.236,-0.982,0,124,0
-0.216,-0.979,0.001,124,0
-0.213,-0.981,-0.004,124,0
-0.229,-0.98,-0.012,124,0
-0.239,-0.97,-0.019,124,0
-0.234,-0.961,-0.018,123,0
-0.228,-0.952,-0.007,123,0
-0.226,-0.95,-0.01,123,0
-0.227,-0.966,-0.032,123,0
-0.229,-0.983,-0.049,123,0
-0.228,-0.985,-0.047,123,0
-0.225,-0.98,-0.034,123,0
-0.225,-0.975,-0.025,123,0
-0.215,-0.976,-0.029,123,0
-0.191,-0.98,-0.038,123,0
-0.184,-0.992,-0.04,123,0
-0.201,-0.995,-0.035,123,0
-0.219,-0.979,-0.031,123,0
-0.221,-0.963,-0.04,123,0
-0.21,-0.964,-0.045,123,0
-0.204,-0.978,-0.03,123,0
-0.204,-0.987,-0.025,123,0
-0.205,-0.98,-0.039,123,0
-0.205,-0.967,-0.053,123,0
-0.202,-0.967,-0.054,123,0
-0.201,-0.982,-0.044,123,0
-0.203,-0.992,-0.04,123,0
-0.198,-0.986,-0.042,123,0
-0.19,-0.974,-0.044,123,0
-0.19,-0.971,-0.041,123,0
-0.192,-0.977,-0.038,123,0
-0.193,-0.978,-0.038,123,0
-0.194,-0.974,-0.035,123,0
-0.195,-0.974,-0.033,123,0
-0.19,-0.977,-0.039,123,0
-0.179,-0.977,-0.043,123,0
-0.169,-0.979,-0.041,123,0
-0.169,-0.983,-0.035,123,0
-0.177,-0.984,-0.033,123,0
-0.183,-0.983,-0.04,123,0
-0.185,-0.98,-0.048,123,0
-0.18,-0.981,-0.054,123,0
-0.172,-0.984,-0.055,123,0
-0.164,-0.985,-0.053,123,0
-0.169,-0.984,-0.056,123,0
-0.181,-0.982,-0.067,123,0
-0.179,-0.98,-0.075,123,0
-0.166,-0.981,-0.076,123,0
-0.151,-0.983,-0.079,123,0
-0.137,-0.984,-0.086,123,0
-0.121,-0.986,-0.094,123,0
-0.112,-0.981,-0.098,123,0
-0.118,-0.979,-0.09,123,0
-0.138,-0.976,-0.075,123,0
-0.169,-0.977,-0.069,123,0
-0.2,-0.988,-0.069,122,0
-0.216,-0.989,-0.072,122,0
-0.194,-0.976,-0.08,122,0
-0.155,-0.972,-0.088,122,0
-0.141,-0.976,-0.092,122,0
-0.15,-0.98,-0.09,122,0
-0.165,-0.983,-0.085,122,0
-0.177,-0.981,-0.077,122,0
-0.188,-0.971,-0.071,122,0
-0.202,-0.959,-0.073,122,0
-0.216,-0.961,-0.073,122,0
-0.23,-0.973,-0.065,122,0
-0.239,-0.981,-0.058,122,0
-0.235,-0.982,-0.06,122,0
-0.22,-0.976,-0.062,122,0
-0.201,-0.969,-0.062,122,0
-0.179,-0.968,-0.061,122,0
-0.174,-0.97,-0.06,122,0
-0.19,-0.972,-0.063,122,0
-0.218,-0.971,-0.061,122,0
-0.253,-0.968,-0.051,122,0
-0.28,-0.967,-0.047,122,0
-0.292,-0.973,-0.055,122,0
-0.287,-0.976,-0.069,122,0
-0.268,-0.971,-0.077,122,0
-0.248,-0.965,-0.082,122,0
-0.235,-0.969,-0.083,122,0
-0.228,-0.979,-0.069,122,0
-0.212,-0.978,-0.057,122,0
-0.169,-0.962,-0.072,122,0
-0.136,-0.957,-0.088,122,0
-0.159,-0.969,-0.073,122,0
-0.209,-0.979,-0.057,122,0
-0.245,-0.982,-0.063,122,0
-0.264,-0.977,-0.077,122,0
-0.255,-0.969,-0.084,122,0
-0.218,-0.971,-0.077,122,0
-0.178,-0.978,-0.067,122,0
-0.157,-0.982,-0.069,122,0
-0.159,-0.982,-0.078,122,0
-0.174,-0.98,-0.077,121,0
-0.187,-0.981,-0.066,121,0
-0.189,-0.984,-0.061,121,0
-0.184,-0.986,-0.065,121,0
-0.174,-0.985,-0.069,121,0
-0.158,-0.983,-0.068,121,0
-0.141,-0.983,-0.068,121,0
-0.134,-0.982,-0.07,121,0
-0.135,-0.98,-0.069,121,0
-0.145,-0.98,-0.065,121,0
-0.16,-0.983,-0.063,121,0
-0.169,-0.985,-0.063,121,0
-0.17,-0.984,-0.063,121,0
-0.164,-0.982,-0.064,121,0
-0.156,-0.979,-0.066,121,0
-0.15,-0.981,-0.067,121,0
-0.151,-0.984,-0.066,121,0
-0.157,-0.986,-0.064,121,0
-0.16,-0.986,-0.066,121,0
-0.153,-0.982,-0.067,121,0
-0.143,-0.978,-0.066,121,0
-0.14,-0.978,-0.068,121,0
-0.146,-0.98,-0.072,121,0
-0.151,-0.981,-0.074,121,0
-0.146,-0.984,-0.072,121,0
-0.142,-0.985,-0.068,121,0
-0.144,-0.984,-0.066,121,0
-0.147,-0.983,-0.066,121,0
-0.144,-0.984,-0.069,121,0
-0.137,-0.984,-0.07,121,0
-0.132,-0.983,-0.069,121,0
-0.13,-0.984,-0.068,121,0
-0.133,-0.986,-0.066,121,0
-0.135,-0.988,-0.063,121,0
-0.131,-0.987,-0.061,121,0
-0.125,-0.986,-0.059,121,0
-0.124,-0.986,-0.056,121,0
-0.126,-0.986,-0.055,121,0
-0.127,-0.987,-0.056,121,0
-0.126,-0.986,-0.06,121,0
-0.125,-0.985,-0.061,121,0
-0.127,-0.985,-0.06,121,0
-0.131,-0.985,-0.059,121,0
-0.134,-0.986,-0.064,121,0
-0.138,-0.983,-0.066,121,0
-0.15,-0.981,-0.06,121,0
-0.157,-0.981,-0.052,121,0
-0.153,-0.981,-0.052,121,0
-0.143,-0.98,-0.056,121,0
-0.135,-0.98,-0.062,121,0
-0.131,-0.983,-0.064,122,0
-0.135,-0.986,-0.06,122,0
-0.146,-0.986,-0.056,122,0
-0.164,-0.984,-0.057,122,0
-0.175,-0.983,-0.06,122,0
-0.167,-0.982,-0.064,122,0
-0.146,-0.982,-0.067,122,0
-0.131,-0.984,-0.069,122,0
-0.128,-0.986,-0.067,122,0
-0.134,-0.987,-0.062,122,0
-0.14,-0.989,-0.057,122,0
-0.136,-0.987,-0.057,122,0
-0.13,-0.985,-0.058,122,0
-0.129,-0.985,-0.059,122,0
-0.133,-0.985,-0.059,122,0
-0.137,-0.986,-0.057,122,0
-0.14,-0.986,-0.054,122,0
-0.141,-0.985,-0.054,122,0
-0.14,-0.985,-0.058,122,0
-0.138,-0.986,-0.064,122,0
-0.137,-0.985,-0.063,122,0
-0.145,-0.979,-0.054,122,0
-0.16,-0.976,-0.049,122,0
-0.172,-0.978,-0.052,122,0
-0.169,-0.983,-0.058,122,0
-0.155,-0.985,-0.058,122,0
-0.141,-0.982,-0.056,122,0
-0.14,-0.979,-0.056,122,0
-0.15,-0.98,-0.058,122,0
-0.154,-0.979,-0.062,122,0
-0.146,-0.973,-0.067,122,0
-0.136,-0.974,-0.069,122,0
-0.131,-0.985,-0.065,122,0
-0.141,-0.99,-0.06,122,0
-0.161,-0.987,-0.058,122,0
-0.178,-0.987,-0.062,122,0
-0.189,-0.987,-0.063,122,0
-0.189,-0.986,-0.06,122,0
-0.179,-0.982,-0.061,122,0
-0.167,-0.98,-0.069,122,0
-0.162,-0.98,-0.074,123,0
-0.16,-0.98,-0.072,123,0
-0.161,-0.981,-0.066,123,0
-0.166,-0.98,-0.064,123,0
-0.168,-0.979,-0.067,123,0
-0.164,-0.981,-0.068,123,0
-0.163,-0.983,-0.064,123,0
-0.174,-0.986,-0.059,123,0
-0.187,-0.988,-0.051,123,0
-0.184,-0.99,-0.052,123,0
-0.162,-0.987,-0.062,123,0
-0.14,-0.977,-0.07,123,0
-0.129,-0.972,-0.072,123,0
-0.131,-0.975,-0.066,123,0
-0.146,-0.979,-0.062,123,0
-0.161,-0.982,-0.064,123,0
-0.165,-0.982,-0.064,123,0
-0.162,-0.98,-0.058,123,0
-0.166,-0.982,-0.054,123,0
-0.177,-0.982,-0.055,123,0
-0.188,-0.983,-0.057,123,0
-0.195,-0.982,-0.054,123,0
-0.187,-0.981,-0.052,123,0
-0.167,-0.981,-0.059,123,0
-0.152,-0.981,-0.067,123,0
-0.147,-0.98,-0.066,123,0
-0.152,-0.981,-0.06,123,0
-0.165,-0.981,-0.056,123,0
-0.176,-0.98,-0.057,123,0
-0.176,-0.982,-0.062,123,0
-0.167,-0.985,-0.069,123,0
-0.152,-0.986,-0.071,123,0
-0.141,-0.984,-0.068,123,0
-0.142,-0.983,-0.067,123,0
-0.149,-0.981,-0.067,123,0
-0.151,-0.98,-0.066,123,0
-0.144,-0.984,-0.066,123,0
-0.141,-0.989,-0.066,123,0
-0.15,-0.988,-0.065,123,0
-0.159,-0.985,-0.066,123,0
-0.161,-0.984,-0.066,123,0
-0.159,-0.983,-0.065,123,0
-0.159,-0.982,-0.062,123,0
-0.157,-0.982,-0.062,123,0
-0.156,-0.983,-0.062,123,0
-0.157,-0.983,-0.062,123,0
-0.157,-0.981,-0.062,123,0
-0.154,-0.979,-0.06,123,0
-0.155,-0.979,-0.06,123,0
-0.157,-0.979,-0.062,123,0
-0.158,-0.981,-0.061,122,0
-0.159,-0.982,-0.057,122,0
-0.161,-0.981,-0.056,122,0
-0.164,-0.981,-0.058,122,0
-0.166,-0.982,-0.06,122,0
-0.166,-0.984,-0.058,122,0
-0.164,-0.986,-0.056,122,0
-0.165,-0.985,-0.054,122,0
-0.166,-0.98,-0.053,122,0
-0.166,-0.979,-0.056,122,0
-0.163,-0.983,-0.057,122,0
-0.16,-0.984,-0.055,122,0
-0.16,-0.983,-0.053,122,0
-0.167,-0.982,-0.053,122,0
-0.167,-0.982,-0.055,122,0
-0.156,-0.982,-0.057,122,0
-0.148,-0.982,-0.054,122,0
-0.152,-0.982,-0.051,122,0
-0.165,-0.982,-0.052,122,0
-0.171,-0.984,-0.053,122,0
-0.167,-0.984,-0.051,122,0
-0.16,-0.982,-0.049,122,0
-0.156,-0.98,-0.051,122,0
-0.152,-0.981,-0.053,122,0
-0.155,-0.983,-0.053,122,0
-0.163,-0.984,-0.049,122,0
-0.173,-0.984,-0.045,122,0
-0.178,-0.982,-0.044,122,0
-0.18,-0.98,-0.047,122,0
-0.18,-0.981,-0.05,122,0
-0.18,-0.983,-0.048,123,0
-0.182,-0.983,-0.043,123,0
-0.186,-0.981,-0.043,123,0
-0.188,-0.98,-0.046,123,0
-0.184,-0.981,-0.05,123,0
-0.181,-0.984,-0.053,123,0
-0.175,-0.985,-0.051,123,0
-0.163,-0.98,-0.043,123,0
-0.156,-0.973,-0.039,123,0
-0.162,-0.972,-0.042,123,0
-0.174,-0.977,-0.045,123,0
-0.182,-0.981,-0.044,123,0
-0.185,-0.983,-0.042,123,0
-0.183,-0.983,-0.044,123,0
-0.181,-0.982,-0.044,123,0
-0.178,-0.98,-0.046,123,0
-0.176,-0.98,-0.05,123,0
-0.175,-0.982,-0.051,123,0
-0.174,-0.983,-0.049,123,0
-0.171,-0.982,-0.049,123,0
-0.172,-0.981,-0.048,123,0
-0.174,-0.981,-0.046,123,0
-0.173,-0.984,-0.049,123,0
-0.171,-0.99,-0.05,123,0
-0.18,-0.985,-0.046,123,0
-0.187,-0.969,-0.051,123,0
-0.184,-0.965,-0.057,123,0
-0.179,-0.971,-0.053,123,0
-0.177,-0.976,-0.046,123,0
-0.178,-0.981,-0.045,123,0
-0.182,-0.984,-0.049,123,0
-0.181,-0.984,-0.05,123,0
-0.177,-0.983,-0.049,123,0
-0.179,-0.983,-0.05,123,0
-0.185,-0.984,-0.05,123,0
-0.186,-0.983,-0.05,123,0
-0.18,-0.982,-0.051,123,0
-0.177,-0.982,-0.052,123,0
-0.179,-0.982,-0.052,123,0
-0.181,-0.983,-0.053,123,0
-0.182,-0.982,-0.054,123,0
-0.181,-0.98,-0.052,123,0
-0.184,-0.98,-0.05,123,0
-0.186,-0.981,-0.051,123,0
-0.185,-0.982,-0.051,123,0
-0.184,-0.982,-0.049,123,0
-0.183,-0.98,-0.05,123,0
-0.182,-0.98,-0.051,123,0
-0.183,-0.981,-0.049,123,0
-0.185,-0.983,-0.05,123,0
-0.176,-0.983,-0.054,124,0
-0.16,-0.983,-0.054,124,0
-0.16,-0.982,-0.048,124,0
-0.177,-0.981,-0.047,124,0
-0.191,-0.982,-0.048,124,0
-0.191,-0.982,-0.051,124,0
-0.178,-0.98,-0.055,124,0
-0.165,-0.979,-0.063,124,0
-0.154,-0.979,-0.071,124,0
-0.154,-0.979,-0.069,124,0
-0.169,-0.981,-0.065,124,0
-0.177,-0.981,-0.064,124,0
-0.171,-0.98,-0.064,124,0
-0.166,-0.981,-0.063,124,0
-0.164,-0.985,-0.065,124,0
-0.163,-0.99,-0.064,124,0
-0.172,-0.99,-0.057,124,0
-0.183,-0.983,-0.057,124,0
-0.172,-0.976,-0.068,124,0
-0.149,-0.977,-0.071,124,0
-0.135,-0.98,-0.062,124,0
-0.146,-0.982,-0.056,124,0
-0.175,-0.982,-0.058,124,0
-0.19,-0.983,-0.063,124,0
-0.178,-0.982,-0.065,124,0
-0.156,-0.981,-0.068,124,0
-0.147,-0.979,-0.072,124,0
-0.154,-0.979,-0.075,124,0
-0.162,-0.98,-0.074,124,0
-0.164,-0.981,-0.071,124,0
-0.159,-0.982,-0.07,124,0
-0.154,-0.981,-0.069,124,0
-0.157,-0.981,-0.069,124,0
-0.169,-0.983,-0.065,124,0
-0.176,-0.985,-0.057,124,0
-0.175,-0.985,-0.051,124,0
-0.18,-0.985,-0.054,124,0
-0.188,-0.98,-0.07,124,0
-0.18,-0.977,-0.08,124,0
-0.16,-0.98,-0.077,124,0
-0.145,-0.984,-0.07,124,0
-0.144,-0.985,-0.071,124,0
-0.156,-0.983,-0.077,124,0
-0.163,-0.981,-0.076,124,0
-0.158,-0.982,-0.066,124,0
-0.154,-0.984,-0.061,124,0
-0.153,-0.984,-0.064,124,0
-0.157,-0.984,-0.067,124,0
-0.164,-0.983,-0.063,124,0
-0.171,-0.981,-0.062,124,0
-0.177,-0.979,-0.068,125,0
-0.176,-0.979,-0.071,125,0
-0.167,-0.979,-0.068,125,0
-0.159,-0.979,-0.067,125,0
-0.157,-0.98,-0.07,125,0
-0.161,-0.983,-0.068,125,0
-0.165,-0.984,-0.062,125,0
-0.166,-0.983,-0.06,125,0
-0.165,-0.982,-0.064,125,0
-0.166,-0.982,-0.066,125,0
-0.166,-0.981,-0.066,125,0
-0.167,-0.981,-0.068,125,0
-0.166,-0.98,-0.071,125,0
-0.166,-0.98,-0.068,125,0
-0.174,-0.982,-0.062,125,0
-0.182,-0.983,-0.062,125,0
-0.178,-0.981,-0.064,125,0
-0.17,-0.982,-0.064,125,0
-0.169,-0.983,-0.064,125,0
-0.171,-0.983,-0.067,125,0
-0.171,-0.982,-0.068,125,0
-0.167,-0.982,-0.066,125,0
-0.165,-0.983,-0.066,125,0
-0.165,-0.985,-0.066,125,0
-0.164,-0.984,-0.066,125,0
-0.161,-0.984,-0.066,125,0
-0.157,-0.983,-0.068,125,0
-0.154,-0.98,-0.069,125,0
-0.154,-0.979,-0.067,125,0
-0.156,-0.981,-0.065,125,0
-0.156,-0.983,-0.065,125,0
-0.156,-0.985,-0.063,125,0
-0.158,-0.983,-0.063,125,0
-0.16,-0.98,-0.065,125,0
-0.164,-0.981,-0.065,125,0
-0.169,-0.982,-0.063,125,0
-0.169,-0.983,-0.06,125,0
-0.166,-0.983,-0.06,125,0
-0.164,-0.983,-0.06,125,0
-0.161,-0.983,-0.061,125,0
-0.154,-0.986,-0.063,125,0
-0.144,-0.989,-0.067,125,0
-0.139,-0.986,-0.063,125,0
-0.149,-0.976,-0.056,125,0
-0.164,-0.97,-0.056,125,0
-0.174,-0.971,-0.059,125,0
-0.175,-0.976,-0.058,125,0
-0.162,-0.98,-0.057,125,0
-0.148,-0.983,-0.057,125,0
-0.146,-0.983,-0.056,125,0
-0.152,-0.985,-0.058,125,0
-0.152,-0.988,-0.057,125,0
-0.154,-0.984,-0.052,125,0
-0.169,-0.977,-0.051,125,0
-0.177,-0.976,-0.057,125,0
-0.163,-0.979,-0.062,125,0
-0.145,-0.983,-0.058,125,0
-0.145,-0.984,-0.053,125,0
-0.162,-0.983,-0.052,125,0
-0.175,-0.981,-0.052,125,0
-0.173,-0.982,-0.051,125,0
-0.165,-0.984,-0.05,125,0
-0.157,-0.984,-0.054,125,0
-0.152,-0.983,-0.059,125,0
-0.152,-0.982,-0.057,125,0
-0.156,-0.982,-0.053,125,0
-0.161,-0.983,-0.052,125,0
-0.165,-0.983,-0.052,125,0
-0.167,-0.984,-0.051,125,0
-0.168,-0.984,-0.053,125,0
-0.169,-0.981,-0.052,124,0
-0.172,-0.98,-0.052,124,0
-0.174,-0.981,-0.053,124,0
-0.172,-0.982,-0.054,124,0
-0.171,-0.983,-0.053,124,0
-0.169,-0.984,-0.052,124,0
-0.169,-0.984,-0.051,124,0
-0.171,-0.984,-0.052,124,0
-0.17,-0.983,-0.053,124,0
-0.163,-0.983,-0.053,124,0
-0.157,-0.985,-0.052,124,0
-0.162,-0.984,-0.051,124,0
-0.167,-0.979,-0.054,124,0
-0.158,-0.977,-0.059,124,0
-0.144,-0.979,-0.063,124,0
-0.135,-0.981,-0.063,124,0
-0.141,-0.982,-0.061,124,0
-0.154,-0.981,-0.059,124,0
-0.162,-0.979,-0.06,124,0
-0.169,-0.982,-0.059,124,0
-0.18,-0.987,-0.053,124,0
-0.184,-0.988,-0.051,124,0
-0.177,-0.985,-0.058,124,0
-0.162,-0.983,-0.066,124,0
-0.147,-0.984,-0.068,124,0
-0.142,-0.982,-0.067,124,0
-0.15,-0.979,-0.068,124,0
-0.163,-0.981,-0.069,124,0
-0.171,-0.985,-0.065,124,0
-0.172,-0.984,-0.06,124,0
-0.166,-0.98,-0.063,124,0
-0.159,-0.979,-0.07,124,0
-0.158,-0.981,-0.068,124,0
-0.166,-0.983,-0.061,124,0
-0.174,-0.982,-0.061,124,0
-0.178,-0.982,-0.065,124,0
-0.179,-0.983,-0.063,124,0
-0.175,-0.983,-0.06,124,0
-0.17,-0.981,-0.062,124,0
-0.166,-0.98,-0.066,124,0
-0.163,-0.98,-0.066,124,0
-0.157,-0.982,-0.064,124,0
-0.153,-0.985,-0.065,124,0
-0.156,-0.986,-0.063,124,0
-0.164,-0.985,-0.059,124,0
-0.168,-0.983,-0.06,124,0
-0.165,-0.982,-0.063,124,0
-0.157,-0.983,-0.063,124,0
-0.155,-0.986,-0.062,124,0
-0.161,-0.984,-0.061,124,0
-0.165,-0.981,-0.063,124,0
-0.165,-0.98,-0.065,124,0
-0.164,-0.982,-0.062,124,0
-0.165,-0.982,-0.058,124,0
-0.167,-0.977,-0.058,124,0
-0.169,-0.975,-0.062,124,0
-0.163,-0.981,-0.064,124,0
-0.149,-0.986,-0.059,124,0
-0.147,-0.985,-0.053,124,0
-0.165,-0.984,-0.054,124,0
-0.187,-0.985,-0.055,124,0
-0.187,-0.986,-0.053,124,0
-0.172,-0.986,-0.052,124,0
-0.17,-0.986,-0.051,124,0
-0.166,-0.979,-0.057,124,0
-0.147,-0.972,-0.073,124,0
-0.137,-0.973,-0.075,124,0
-0.154,-0.978,-0.056,124,0
-0.186,-0.981,-0.044,124,0
-0.208,-0.978,-0.049,124,0
-0.209,-0.978,-0.052,124,0
-0.192,-0.983,-0.048,124,0
-0.176,-0.981,-0.048,124,0
-0.172,-0.972,-0.057,124,0
-0.179,-0.975,-0.063,124,0
-0.195,-0.982,-0.055,124,0
-0.211,-0.982,-0.044,124,0
-0.21,-0.977,-0.046,124,0
-0.191,-0.976,-0.053,124,0
-0.167,-0.979,-0.058,124,0
-0.159,-0.982,-0.057,124,0
-0.173,-0.984,-0.05,124,0
-0.194,-0.982,-0.043,124,0
-0.205,-0.976,-0.045,124,0
-0.19,-0.972,-0.06,124,0
-0.161,-0.976,-0.07,124,0
-0.144,-0.98,-0.064,124,0
-0.156,-0.981,-0.052,124,0
-0.187,-0.983,-0.046,124,0
-0.205,-0.983,-0.049,124,0
-0.198,-0.982,-0.053,124,0
-0.183,-0.984,-0.054,124,0
-0.178,-0.983,-0.055,124,0
-0.184,-0.98,-0.059,124,0
-0.187,-0.978,-0.062,124,0
-0.186,-0.979,-0.059,124,0
-0.188,-0.982,-0.055,124,0
-0.194,-0.984,-0.054,124,0
-0.192,-0.983,-0.055,124,0
-0.188,-0.981,-0.058,124,0
-0.19,-0.981,-0.06,124,0
-0.192,-0.978,-0.059,124,0
-0.191,-0.975,-0.058,124,0
-0.193,-0.978,-0.059,124,0
-0.197,-0.981,-0.056,124,0
-0.197,-0.982,-0.053,124,0
-0.189,-0.98,-0.053,124,0
-0.184,-0.98,-0.054,124,0
-0.182,-0.98,-0.055,124,0
-0.183,-0.981,-0.055,124,0
-0.186,-0.981,-0.054,124,0
-0.189,-0.982,-0.054,124,0
-0.19,-0.982,-0.055,124,0
-0.187,-0.982,-0.056,124,0
-0.181,-0.981,-0.057,124,0
-0.177,-0.981,-0.059,124,0
-0.176,-0.981,-0.061,124,0
-0.178,-0.981,-0.061,124,0
-0.177,-0.982,-0.062,124,0
-0.172,-0.982,-0.062,124,0
-0.173,-0.981,-0.058,124,0
-0.179,-0.98,-0.059,124,0
-0.18,-0.981,-0.062,124,0
-0.173,-0.983,-0.061,124,0
-0.164,-0.983,-0.06,124,0
-0.161,-0.983,-0.062,124,0
-0.165,-0.981,-0.064,124,0
-0.168,-0.981,-0.062,124,0
-0.172,-0.98,-0.059,124,0
-0.173,-0.979,-0.061,124,0
-0.172,-0.979,-0.062,125,0
-0.171,-0.98,-0.061,125,0
-0.174,-0.981,-0.06,125,0
-0.176,-0.981,-0.061,125,0
-0.173,-0.981,-0.062,125,0
-0.17,-0.982,-0.062,125,0
-0.168,-0.983,-0.063,125,0
-0.168,-0.982,-0.063,125,0
-0.171,-0.982,-0.063,125,0
-0.172,-0.981,-0.065,125,0
-0.163,-0.98,-0.069,125,0
-0.151,-0.984,-0.072,125,0
-0.157,-0.987,-0.069,125,0
-0.171,-0.985,-0.065,125,0
-0.17,-0.984,-0.064,125,0
-0.156,-0.98,-0.07,125,0
-0.137,-0.977,-0.078,125,0
-0.129,-0.979,-0.076,125,0
-0.137,-0.981,-0.065,125,0
-0.16,-0.983,-0.064,125,0
-0.189,-0.975,-0.079,125,0
-0.215,-0.97,-0.082,125,0
-0.211,-0.98,-0.058,125,0
-0.177,-0.982,-0.048,125,0
-0.163,-0.98,-0.058,125,0
-0.187,-0.979,-0.063,125,0
-0.218,-0.978,-0.06,125,0
-0.235,-0.976,-0.06,125,0
-0.233,-0.974,-0.064,125,0
-0.215,-0.973,-0.071,125,0
-0.196,-0.974,-0.074,125,0
-0.191,-0.978,-0.073,125,0
-0.198,-0.98,-0.069,125,0
-0.205,-0.982,-0.066,125,0
-0.205,-0.982,-0.068,125,0
-0.202,-0.98,-0.068,125,0
-0.208,-0.976,-0.065,125,0
-0.224,-0.966,-0.071,125,0
-0.228,-0.957,-0.09,125,0
-0.204,-0.959,-0.106,125,0
-0.164,-0.97,-0.094,125,0
-0.14,-0.979,-0.069,125,0
-0.156,-0.984,-0.057,125,0
-0.192,-0.986,-0.067,125,0
-0.211,-0.984,-0.082,125,0
-0.2,-0.983,-0.081,125,0
-0.18,-0.984,-0.072,125,0
-0.18,-0.985,-0.07,125,0
-0.193,-0.983,-0.074,125,0
-0.2,-0.98,-0.075,125,0
-0.196,-0.981,-0.075,125,0
-0.187,-0.979,-0.074,125,0
-0.185,-0.97,-0.079,125,0
-0.191,-0.965,-0.084,125,0
-0.196,-0.968,-0.083,125,0
-0.195,-0.977,-0.08,125,0
-0.195,-0.982,-0.079,125,0
-0.2,-0.984,-0.077,125,0
-0.206,-0.984,-0.073,125,0
-0.208,-0.981,-0.074,125,0
-0.205,-0.969,-0.081,125,0
-0.191,-0.971,-0.09,125,0
-0.166,-0.981,-0.092,125,0
-0.145,-0.982,-0.089,125,0
-0.149,-0.981,-0.088,125,0
-0.169,-0.981,-0.09,125,0
-0.183,-0.982,-0.091,125,0
-0.175,-0.984,-0.086,125,0
-0.154,-0.983,-0.081,125,0
-0.137,-0.985,-0.083,125,0
-0.13,-0.987,-0.091,125,0
-0.131,-0.988,-0.092,125,0
-0.132,-0.987,-0.089,125,0
-0.128,-0.987,-0.086,125,0
-0.123,-0.988,-0.088,125,0
-0.118,-0.988,-0.091,125,0
-0.118,-0.986,-0.085,125,0
-0.118,-0.985,-0.077,125,0
-0.118,-0.986,-0.072,125,0
-0.118,-0.987,-0.07,125,0
-0.119,-0.986,-0.066,125,0
-0.12,-0.985,-0.06,125,0
-0.119,-0.985,-0.058,125,0
-0.119,-0.984,-0.059,125,0
-0.121,-0.979,-0.06,125,0
-0.122,-0.975,-0.06,125,0
-0.124,-0.976,-0.054,125,0
-0.127,-0.979,-0.045,125,0
-0.127,-0.982,-0.036,125,0
-0.127,-0.984,-0.032,125,0
-0.126,-0.983,-0.028,125,0
-0.13,-0.982,-0.026,125,0
-0.143,-0.979,-0.032,125,0
-0.164,-0.973,-0.04,125,0
-0.187,-0.977,-0.035,125,0
-0.197,-0.985,-0.024,125,0
-0.183,-0.988,-0.025,125,0
-0.156,-0.988,-0.036,125,0
-0.135,-0.986,-0.044,125,0
-0.126,-0.985,-0.036,125,0
-0.129,-0.985,-0.028,125,0
-0.146,-0.981,-0.038,125,0
-0.164,-0.974,-0.052,125,0
-0.177,-0.974,-0.053,125,0
-0.183,-0.974,-0.042,125,0
-0.19,-0.974,-0.037,125,0
-0.203,-0.978,-0.039,125,0
-0.216,-0.979,-0.041,125,0
-0.225,-0.977,-0.042,125,0
-0.226,-0.977,-0.041,125,0
-0.225,-0.977,-0.04,125,0
-0.224,-0.976,-0.04,125,0
-0.226,-0.977,-0.042,125,0
-0.23,-0.977,-0.042,125,0
-0.237,-0.976,-0.04,125,0
-0.242,-0.974,-0.039,125,0
-0.243,-0.972,-0.04,125,0
-0.243,-0.971,-0.042,125,0
-0.242,-0.971,-0.044,125,0
-0.239,-0.97,-0.043,125,0
-0.234,-0.965,-0.042,125,0
-0.23,-0.967,-0.045,125,0
-0.226,-0.968,-0.05,125,0
-0.217,-0.968,-0.053,125,0
-0.218,-0.972,-0.05,125,0
-0.235,-0.977,-0.044,125,0
-0.245,-0.98,-0.045,125,0
-0.24,-0.98,-0.05,125,0
-0.227,-0.979,-0.05,125,0
-0.216,-0.976,-0.047,125,0
-0.211,-0.969,-0.051,125,0
-0.211,-0.97,-0.059,125,0
-0.216,-0.977,-0.064,125,0
-0.214,-0.982,-0.063,125,0
-0.204,-0.98,-0.059,125,0
-0.196,-0.973,-0.058,125,0
-0.194,-0.972,-0.06,125,0
-0.195,-0.977,-0.063,125,0
-0.194,-0.978,-0.062,125,0
-0.191,-0.977,-0.059,125,0
-0.191,-0.977,-0.061,125,0
-0.193,-0.977,-0.063,125,0
-0.193,-0.979,-0.059,125,0
-0.195,-0.98,-0.056,125,0
-0.199,-0.981,-0.057,125,0
-0.201,-0.98,-0.059,125,0
-0.2,-0.979,-0.058,125,0
-0.201,-0.979,-0.056,125,0
-0.203,-0.98,-0.056,125,0
-0.204,-0.982,-0.057,125,0
-0.205,-0.981,-0.055,125,0
-0.209,-0.977,-0.053,125,0
-0.213,-0.977,-0.055,125,0
-0.21,-0.978,-0.056,125,0
-0.206,-0.978,-0.054,125,0
-0.203,-0.978,-0.053,125,0
-0.204,-0.978,-0.055,125,0
-0.205,-0.978,-0.056,125,0
-0.205,-0.978,-0.056,125,0
-0.204,-0.979,-0.057,125,0
-0.204,-0.979,-0.058,125,0
-0.204,-0.979,-0.056,125,0
-0.205,-0.979,-0.055,125,0
-0.204,-0.979,-0.057,125,0
-0.204,-0.98,-0.058,125,0
-0.203,-0.981,-0.058,125,0
-0.199,-0.979,-0.059,125,0
-0.196,-0.978,-0.061,125,0
-0.196,-0.979,-0.062,125,0
-0.197,-0.98,-0.06,125,0
-0.199,-0.98,-0.059,125,0
-0.201,-0.979,-0.06,125,0
-0.202,-0.979,-0.06,125,0
-0.201,-0.981,-0.06,125,0
-0.203,-0.981,-0.058,125,0
-0.212,-0.978,-0.054,125,0
-0.225,-0.975,-0.052,125,0
-0.223,-0.976,-0.055,125,0
-0.202,-0.977,-0.06,125,0
-0.178,-0.98,-0.06,125,0
-0.162,-0.979,-0.061,125,0
-0.163,-0.974,-0.06,125,0
-0.183,-0.97,-0.058,125,0
-0.208,-0.971,-0.057,125,0
-0.225,-0.974,-0.055,125,0
-0.232,-0.978,-0.053,125,0
-0.227,-0.979,-0.055,125,0
-0.217,-0.979,-0.056,125,0
-0.216,-0.977,-0.056,125,0
-0.221,-0.976,-0.056,125,0
-0.225,-0.977,-0.057,125,0
-0.221,-0.976,-0.058,125,0
-0.214,-0.976,-0.059,125,0
-0.209,-0.978,-0.06,125,0
-0.21,-0.979,-0.058,125,0
-0.211,-0.976,-0.057,125,0
-0.211,-0.975,-0.058,125,0
-0.212,-0.976,-0.059,125,0
-0.213,-0.978,-0.057,125,0
-0.212,-0.978,-0.055,125,0
-0.212,-0.978,-0.055,125,0
-0.213,-0.977,-0.057,125,0
-0.213,-0.977,-0.057,125,0
-0.213,-0.978,-0.057,125,0
-0.214,-0.979,-0.055,125,0
-0.214,-0.977,-0.053,125,0
-0.212,-0.975,-0.053,125,0
-0.21,-0.977,-0.055,125,0
-0.209,-0.979,-0.055,125,0
-0.208,-0.978,-0.055,125,0
-0.204,-0.975,-0.056,124,0
-0.205,-0.974,-0.055,124,0
-0.209,-0.975,-0.054,124,0
-0.209,-0.976,-0.054,124,0
-0.208,-0.977,-0.052,124,0
-0.209,-0.976,-0.052,124,0
-0.21,-0.975,-0.053,124,0
-0.211,-0.977,-0.053,124,0
-0.211,-0.98,-0.054,124,0
-0.209,-0.979,-0.052,124,0
-0.208,-0.976,-0.05,124,0
-0.208,-0.977,-0.051,124,0
-0.208,-0.98,-0.052,124,0
-0.207,-0.981,-0.052,124,0
-0.205,-0.979,-0.051,124,0
-0.207,-0.979,-0.052,124,0
-0.21,-0.976,-0.054,124,0
-0.21,-0.975,-0.054,124,0
-0.208,-0.976,-0.053,124,0
-0.206,-0.977,-0.051,124,0
-0.207,-0.977,-0.051,124,0
-0.208,-0.977,-0.052,124,0
-0.209,-0.978,-0.052,124,0
-0.209,-0.979,-0.052,124,0
-0.207,-0.979,-0.051,124,0
-0.205,-0.98,-0.05,124,0
-0.204,-0.981,-0.05,124,0
-0.203,-0.98,-0.052,124,0
-0.204,-0.976,-0.053,124,0
-0.21,-0.976,-0.052,124,0
-0.214,-0.976,-0.054,124,0
-0.21,-0.972,-0.057,124,0
-0.201,-0.969,-0.061,124,0
-0.197,-0.974,-0.058,124,0
-0.2,-0.984,-0.049,124,0
-0.203,-0.986,-0.048,124,0
-0.206,-0.978,-0.056,124,0
-0.205,-0.974,-0.059,124,0
-0.196,-0.976,-0.055,124,0
-0.186,-0.978,-0.055,124,0
-0.186,-0.979,-0.058,124,0
-0.189,-0.979,-0.061,124,0
-0.192,-0.979,-0.06,124,0
-0.197,-0.98,-0.056,124,0
-0.2,-0.98,-0.058,124,0
-0.199,-0.981,-0.059,124,0
-0.196,-0.981,-0.057,124,0
-0.197,-0.979,-0.056,124,0
-0.202,-0.979,-0.057,124,0
-0.205,-0.98,-0.056,124,0
-0.203,-0.981,-0.054,124,0
-0.2,-0.981,-0.054,124,0
-0.198,-0.98,-0.054,124,0
-0.199,-0.981,-0.055,124,0
-0.199,-0.982,-0.057,124,0
-0.197,-0.98,-0.055,124,0
-0.196,-0.977,-0.055,124,0
-0.198,-0.979,-0.057,124,0
-0.199,-0.98,-0.057,124,0
-0.198,-0.981,-0.055,124,0
-0.197,-0.98,-0.054,124,0
-0.198,-0.979,-0.054,124,0
-0.199,-0.98,-0.055,124,0
-0.198,-0.982,-0.056,124,0
-0.195,-0.981,-0.057,124,0
-0.193,-0.98,-0.057,124,0
-0.193,-0.979,-0.056,124,0
-0.195,-0.981,-0.057,124,0
-0.196,-0.982,-0.058,124,0
-0.195,-0.98,-0.057,124,0
-0.196,-0.978,-0.055,124,0
-0.197,-0.979,-0.056,124,0
-0.197,-0.98,-0.057,124,0
-0.196,-0.981,-0.055,124,0
-4.233,-3.126,5.149,2047,0
-0.314,0.121,0.935,60,0
-0.309,0.118,0.942,60,0
-0.304,0.122,0.943,60,0
-0.298,0.134,0.939,60,0
-0.294,0.147,0.936,60,0
-0.291,0.148,0.93,60,0
-0.292,0.139,0.926,60,0
-0.287,0.132,0.924,60,0
-0.279,0.128,0.926,60,0
-0.275,0.125,0.928,60,0
-0.266,0.127,0.932,60,0
-0.258,0.133,0.933,60,0
-0.254,0.138,0.93,60,0
-0.252,0.137,0.927,60,0
-0.252,0.133,0.922,60,0
-0.253,0.128,0.922,60,0
-0.259,0.121,0.926,60,0
-0.265,0.114,0.931,60,0
-0.276,0.105,0.939,60,0
-0.283,0.098,0.945,60,0
-0.289,0.095,0.947,60,0
-0.295,0.093,0.95,60,0
-0.295,0.093,0.95,60,0
-0.295,0.093,0.95,60,0
-0.298,0.093,0.95,60,0
-0.303,0.097,0.946,60,0
-0.308,0.101,0.942,60,0
-0.31,0.106,0.939,60,0
-0.309,0.109,0.935,60,0
-0.308,0.107,0.933,60,0
-0.306,0.104,0.93,60,0
-0.306,0.104,0.929,60,0
-0.309,0.105,0.931,60,0
-0.309,0.103,0.935,60,0
-0.307,0.098,0.939,60,0
-0.303,0.091,0.941,60,0
-0.299,0.083,0.94,60,0
-0.291,0.077,0.941,60,0
-0.285,0.08,0.94,60,0
-0.286,0.089,0.945,60,0
-0.276,0.104,0.957,60,0
-0.261,0.121,0.969,60,0
-0.246,0.13,0.975,60,0
-0.234,0.129,0.969,60,0
-0.234,0.125,0.958,60,0
-0.223,0.119,0.95,60,0
-0.21,0.115,0.949,60,0
-0.207,0.112,0.954,60,0
-0.206,0.106,0.964,60,0
-0.207,0.1,0.969,60,0
-0.206,0.097,0.971,60,0
-0.203,0.092,0.97,60,0
-0.206,0.088,0.969,60,0
-0.206,0.086,0.969,60,0
-0.199,0.083,0.965,60,0
-0.199,0.08,0.96,60,0
-0.196,0.076,0.955,60,0
-0.186,0.072,0.944,60,0
-0.182,0.068,0.933,60,0
-0.179,0.06,0.927,59,0
-0.181,0.053,0.926,59,0
-0.191,0.057,0.942,59,0
-0.203,0.071,0.965,59,0
-0.213,0.082,0.978,59,0
-0.217,0.085,0.982,59,0
-0.212,0.08,0.981,59,0
-0.205,0.069,0.977,59,0
-0.202,0.058,0.969,59,0
-0.198,0.056,0.964,59,0
-0.197,0.058,0.96,59,0
-0.203,0.055,0.958,59,0
-0.209,0.051,0.959,59,0
-0.213,0.048,0.962,59,0
-0.216,0.042,0.957,59,0
-0.189,0.027,0.898,59,0
-0.172,0.025,0.864,59,0
-0.179,0.031,0.866,59,0
-0.21,0.06,0.924,59,0
-0.237,0.107,0.997,59,0
-0.221,0.147,1.02,59,0
-0.201,0.172,0.992,59,0
-0.224,0.207,0.99,59,0
-0.229,0.254,1.031,59,0
-0.189,0.28,1.04,59,0
-0.159,0.277,1.003,59,0
-0.156,0.26,0.973,59,0
-0.15,0.235,0.962,59,0
-0.142,0.213,0.95,59,0
-0.143,0.201,0.939,59,0
-0.13,0.189,0.933,59,0
-0.121,0.176,0.928,59,0
-0.132,0.159,0.938,59,0
-0.136,0.14,0.959,59,0
-0.132,0.126,0.975,59,0
-0.135,0.118,0.98,59,0
-0.13,0.115,0.98,59,0
-0.123,0.115,0.978,59,0
-0.122,0.116,0.972,59,0
-0.121,0.115,0.964,59,0
-0.117,0.106,0.957,59,0
-0.112,0.09,0.951,59,0
-0.108,0.077,0.952,59,0
-0.11,0.073,0.963,59,0
-0.113,0.071,0.97,59,0
-0.115,0.068,0.973,59,0
-0.115,0.064,0.975,59,0
-0.107,0.061,0.964,59,0
-0.102,0.061,0.954,59,0
-0.109,0.068,0.965,59,0
-0.115,0.071,0.978,59,0
-0.114,0.066,0.98,59,0
-0.113,0.058,0.98,59,0
-0.104,0.057,0.974,59,0
-0.099,0.069,0.97,59,0
-0.107,0.079,0.978,59,0
-0.108,0.084,0.983,59,0
-0.1,0.089,0.979,59,0
-0.094,0.089,0.977,59,0
-0.083,0.084,0.975,59,0
-0.074,0.083,0.973,59,0
-0.076,0.085,0.975,59,0
-0.079,0.087,0.979,59,0
-0.082,0.086,0.98,59,0
-0.081,0.083,0.98,59,0
-0.08,0.082,0.979,59,0
-0.079,0.081,0.976,59,0
-0.075,0.082,0.975,59,0
-0.073,0.083,0.976,59,0
-0.072,0.086,0.976,59,0
-0.07,0.091,0.976,60,0
-0.073,0.096,0.973,60,0
-0.078,0.099,0.971,60,0
-0.08,0.097,0.971,60,0
-0.085,0.094,0.975,60,0
-0.086,0.09,0.98,60,0
-0.081,0.089,0.983,60,0
-0.076,0.087,0.983,60,0
-0.071,0.084,0.978,60,0
-0.067,0.082,0.959,60,0
-0.054,0.074,0.914,60,0
-0.024,0.055,0.832,60,0
0.012,0.045,0.718,60,0
0.026,0.079,0.639,60,0
-0.009,0.173,0.646,60,0
-0.042,0.309,0.677,60,0
-0.12,0.505,0.733,60,0
-0.283,0.736,0.822,60,0
-0.351,0.867,0.839,60,0
-0.294,0.869,0.789,60,0
-0.274,0.824,0.711,60,0
-0.304,0.794,0.615,60,0
-0.32,0.808,0.536,60,0
-0.317,0.867,0.481,60,0
-0.312,0.937,0.44,60,0
-0.306,0.986,0.409,60,0
-0.293,1.009,0.383,60,0
-0.278,1.01,0.351,60,0
-0.273,0.998,0.322,60,0
-0.284,0.982,0.294,60,0
-0.308,0.963,0.271,61,0
-0.329,0.944,0.263,61,0
-0.33,0.934,0.274,61,0
-0.312,0.931,0.286,61,0
-0.302,0.936,0.284,61,0
-0.307,0.947,0.28,61,0
-0.309,0.959,0.274,61,0
-0.302,0.965,0.266,61,0
-0.293,0.962,0.257,61,0
-0.287,0.955,0.246,61,0
-0.289,0.948,0.234,61,0
-0.303,0.935,0.209,61,0
-0.341,0.924,0.175,61,0
-0.338,0.934,0.176,61,0
-0.263,0.944,0.19,61,0
-0.184,0.959,0.223,61,0
-0.074,0.975,0.279,61,0
0.007,0.968,0.312,61,0
0.002,0.955,0.313,61,0
-0.011,0.937,0.288,61,0
-0.039,0.918,0.257,62,0
-0.097,0.909,0.219,62,0
-0.161,0.921,0.192,62,0
-0.224,0.948,0.155,62,0
-0.308,0.972,0.113,62,0
-0.397,0.988,0.111,62,0
-0.487,1.007,0.115,62,0
-0.436,1.079,0.142,62,0
-0.144,1.101,0.181,62,0
0.127,1.019,0.223,62,0
0.163,0.941,0.268,63,0
0.032,0.87,0.245,63,0
-0.112,0.839,0.181,63,0
-0.212,0.888,0.128,63,0
-0.285,0.969,0.1,63,0
-0.295,1.038,0.102,63,0
-0.26,1.073,0.103,63,0
-0.327,1.052,0.038,63,0
-0.473,1.009,-0.014,63,0
-0.475,1,-0.008,63,0
-0.272,1.004,0.029,63,0
-0.023,0.972,0.109,63,0
0.086,0.938,0.184,63,0
0.04,0.939,0.222,63,0
-0.038,0.947,0.233,63,0
-0.114,0.947,0.212,63,0
-0.206,0.951,0.179,63,0
-0.307,0.966,0.154,63,0
-0.388,0.984,0.148,63,0
-0.411,1.004,0.161,63,0
-0.38,1.017,0.168,64,0
-0.329,1.008,0.164,64,0
-0.291,0.984,0.145,64,0
-0.27,0.965,0.135,64,0
-0.239,0.95,0.14,64,0
-0.19,0.938,0.16,64,0
-0.162,0.934,0.189,64,0
-0.183,0.937,0.2,64,0
-0.227,0.944,0.188,64,0
-0.265,0.952,0.171,64,0
-0.285,0.957,0.162,64,0
-0.292,0.963,0.163,64,0
-0.294,0.973,0.169,64,0
-0.293,0.981,0.169,64,0
-0.29,0.987,0.163,64,0
-0.279,0.99,0.159,64,0
-0.254,0.99,0.158,64,0
-0.243,0.987,0.148,64,0
-0.257,0.978,0.134,64,0
-0.274,0.971,0.129,64,0
-0.291,0.977,0.126,65,0
-0.302,0.986,0.126,65,0
-0.303,0.992,0.131,65,0
-0.295,0.989,0.147,65,0
-0.277,0.955,0.17,65,0
-0.249,0.91,0.192,65,0
-0.197,0.908,0.223,65,0
-0.152,0.93,0.247,65,0
-0.16,0.936,0.24,65,0
-0.192,0.927,0.226,65,0
-0.206,0.917,0.217,65,0
-0.195,0.925,0.224,65,0
-0.167,0.955,0.263,65,0
-0.152,0.983,0.318,65,0
-0.176,0.99,0.358,65,0
-0.216,0.966,0.358,65,0
-0.235,0.92,0.328,65,0
-0.234,0.887,0.291,65,0
-0.234,0.88,0.255,65,0
-0.24,0.899,0.243,65,0
-0.239,0.932,0.248,66,0
-0.236,0.959,0.253,66,0
-0.234,0.969,0.258,66,0
-0.223,0.956,0.258,66,0
-0.209,0.933,0.249,66,0
-0.204,0.928,0.235,66,0
-0.204,0.944,0.228,66,0
-0.208,0.964,0.232,66,0
-0.209,0.973,0.249,66,0
-0.202,0.966,0.265,66,0
-0.197,0.958,0.269,66,0
-0.197,0.962,0.272,66,0
-0.194,0.97,0.281,66,0
-0.186,0.973,0.288,66,0
-0.184,0.968,0.287,66,0
-0.196,0.961,0.276,66,0
-0.211,0.956,0.265,66,0
-0.213,0.952,0.263,66,0
-0.215,0.949,0.256,66,0
-0.225,0.95,0.245,66,0
-0.232,0.958,0.241,67,0
-0.234,0.96,0.243,67,0
-0.231,0.952,0.245,67,0
-0.23,0.947,0.244,67,0
-0.236,0.949,0.243,67,0
-0.237,0.953,0.244,67,0
-0.227,0.955,0.244,67,0
-0.218,0.956,0.247,67,0
-0.219,0.958,0.251,67,0
-0.226,0.96,0.253,67,0
-0.232,0.958,0.252,67,0
-0.235,0.953,0.25,67,0
-0.234,0.949,0.249,67,0
-0.23,0.946,0.25,67,0
-0.226,0.947,0.253,67,0
-0.222,0.95,0.259,67,0
-0.218,0.954,0.265,67,0
-0.22,0.959,0.263,67,0
-0.231,0.965,0.261,67,0
-0.239,0.962,0.266,67,0
-0.241,0.954,0.272,68,0
-0.236,0.944,0.274,68,0
-0.234,0.94,0.27,68,0
-0.236,0.939,0.265,68,0
-0.237,0.938,0.259,68,0
-0.238,0.94,0.254,68,0
-0.238,0.942,0.253,68,0
-0.237,0.943,0.256,68,0
-0.237,0.944,0.26,68,0
-0.24,0.945,0.262,68,0
-0.243,0.943,0.263,68,0
-0.245,0.94,0.264,68,0
-0.246,0.941,0.262,68,0
-0.247,0.945,0.26,68,0
-0.247,0.949,0.259,68,0
-0.242,0.95,0.258,68,0
-0.237,0.95,0.258,68,0
-0.237,0.951,0.257,68,0
-0.241,0.953,0.257,68,0
-0.244,0.953,0.258,68,0
-0.246,0.952,0.259,68,0
-0.247,0.949,0.259,68,0
-0.249,0.946,0.259,68,0
-0.251,0.946,0.261,68,0
-0.251,0.947,0.263,68,0
-0.249,0.946,0.262,68,0
-0.245,0.945,0.258,68,0
-0.245,0.947,0.254,68,0
-0.246,0.947,0.251,68,0
-0.246,0.948,0.25,68,0
-0.246,0.949,0.252,69,0
-0.246,0.948,0.254,69,0
-0.246,0.947,0.252,69,0
-0.245,0.944,0.249,69,0
-0.245,0.944,0.246,69,0
-0.243,0.947,0.246,69,0
-0.241,0.949,0.246,69,0
-0.24,0.948,0.246,69,0
-0.24,0.948,0.249,69,0
-0.243,0.95,0.251,69,0
-0.244,0.95,0.254,69,0
-0.244,0.948,0.255,69,0
-0.245,0.948,0.252,69,0
-0.245,0.949,0.248,69,0
-0.243,0.949,0.247,69,0
-0.241,0.95,0.248,69,0
-0.241,0.952,0.25,69,0
-0.24,0.953,0.251,69,0
-0.241,0.952,0.249,69,0
-0.242,0.951,0.247,69,0
-0.241,0.95,0.245,70,0
-0.24,0.949,0.244,70,0
-0.24,0.95,0.244,70,0
-0.24,0.95,0.245,70,0
-0.241,0.948,0.247,70,0
-0.243,0.947,0.249,70,0
-0.244,0.948,0.249,70,0
-0.242,0.949,0.25,70,0
-0.24,0.95,0.25,70,0
-0.242,0.951,0.25,70,0
-0.244,0.952,0.249,70,0
-0.244,0.951,0.25,70,0
-0.245,0.949,0.253,70,0
-0.245,0.947,0.253,70,0
-0.245,0.945,0.252,70,0
-0.247,0.946,0.25,70,0
-0.249,0.948,0.25,70,0
-0.249,0.949,0.253,78,0
-0.247,0.95,0.256,78,0
-0.245,0.951,0.257,78,0
-0.244,0.952,0.256,78,0
-0.243,0.955,0.253,78,0
-0.242,0.957,0.251,78,0
-0.239,0.958,0.251,78,0
-0.236,0.958,0.252,78,0
-0.235,0.959,0.254,78,0
-0.233,0.961,0.261,78,0
-0.229,0.959,0.266,78,0
-0.227,0.952,0.259,78,0
-0.226,0.942,0.252,78,0
-0.223,0.934,0.251,78,0
-0.222,0.931,0.254,80,0
-0.218,0.932,0.26,80,0
-0.215,0.935,0.263,80,0
-0.214,0.937,0.264,81,0
-0.216,0.943,0.271,81,0
-0.225,0.952,0.278,81,0
-0.235,0.954,0.277,82,0
-0.242,0.944,0.272,82,0
-0.248,0.937,0.263,82,0
-0.254,0.946,0.251,82,0
-0.262,0.964,0.237,82,0
-0.265,0.968,0.227,83,0
-0.262,0.953,0.221,83,0
-0.258,0.931,0.213,83,0
-0.257,0.915,0.206,83,0
-0.26,0.911,0.198,84,0
-0.268,0.926,0.191,84,0
-0.272,0.952,0.189,84,0
-0.268,0.974,0.192,85,0
-0.258,0.98,0.198,85,0
-0.25,0.972,0.203,85,0
-0.246,0.949,0.2,86,0
-0.245,0.921,0.189,86,0
-0.245,0.899,0.181,86,0
-0.25,0.888,0.182,86,0
-0.26,0.904,0.189,87,0
-0.27,0.952,0.197,87,0
-0.279,1.012,0.198,87,0
-0.281,1.034,0.198,87,0
-0.276,0.997,0.202,87,0
-0.27,0.94,0.207,88,0
-0.263,0.902,0.208,88,0
-0.267,0.904,0.2,88,0
-0.288,0.932,0.183,88,0
-0.309,0.964,0.167,88,0
-0.321,0.998,0.155,88,0
-0.324,1.014,0.141,88,0
-0.315,1.01,0.133,88,0
-0.301,1.001,0.137,88,0
-0.287,0.993,0.145,88,0
-0.273,0.982,0.152,88,0
-0.26,0.974,0.159,86,0
-0.253,0.975,0.161,86,0
-0.254,0.976,0.156,86,0
-0.257,0.973,0.152,86,0
-0.255,0.972,0.154,86,0
-0.252,0.972,0.158,86,0
-0.249,0.963,0.162,86,0
-0.247,0.937,0.167,86,0
-0.248,0.913,0.172,86,0
-0.251,0.917,0.173,86,0
-0.265,0.972,0.166,85,0
-0.282,1.033,0.158,85,0
-0.283,1.026,0.163,85,0
-0.281,0.977,0.179,85,0
-0.279,0.954,0.194,85,0
-0.266,0.962,0.202,85,0
-0.257,0.965,0.223,85,0
-0.253,0.956,0.244,85,0
-0.244,0.959,0.247,85,0
-0.236,0.98,0.239,85,0
-0.236,0.988,0.227,83,0
-0.24,0.954,0.213,83,0
-0.242,0.902,0.207,83,0
-0.241,0.876,0.207,83,0
-0.24,0.883,0.213,83,0
-0.239,0.901,0.225,83,0
-0.241,0.921,0.239,83,0
-0.241,0.943,0.251,83,0
-0.237,0.955,0.264,83,0
-0.232,0.947,0.281,83,0
-0.223,0.926,0.291,82,0
-0.218,0.906,0.289,82,0
-0.224,0.9,0.279,82,0
-0.232,0.911,0.27,82,0
-0.238,0.927,0.273,82,0
-0.241,0.935,0.278,82,0
-0.242,0.938,0.281,82,0
-0.237,0.945,0.285,82,0
-0.222,0.957,0.287,82,0
-0.207,0.969,0.287,82,0
-0.201,0.977,0.283,80,0
-0.199,0.979,0.283,80,0
-0.19,0.975,0.289,80,0
-0.169,0.967,0.299,80,0
-0.155,0.965,0.304,80,0
-0.151,0.967,0.308,80,0
-0.161,0.962,0.312,80,0
-0.183,0.953,0.312,80,0
-0.195,0.947,0.31,80,0
-0.198,0.944,0.313,80,0
-0.2,0.939,0.323,80,0
-0.202,0.934,0.336,80,0
-0.202,0.926,0.347,80,0
-0.2,0.914,0.352,80,0
-0.204,0.903,0.348,80,0
-0.213,0.904,0.341,80,0
-0.223,0.926,0.335,80,0
-0.229,0.959,0.333,80,0
-0.229,0.983,0.333,80,0
-0.223,0.989,0.327,80,0
-0.216,0.974,0.316,79,0
-0.212,0.951,0.302,79,0
-0.212,0.938,0.286,79,0
-0.211,0.938,0.274,79,0
-0.208,0.942,0.27,79,0
-0.203,0.942,0.27,79,0
-0.197,0.931,0.27,79,0
-0.197,0.916,0.271,79,0
-0.204,0.907,0.271,79,0
-0.215,0.907,0.272,79,0
-0.225,0.91,0.275,79,0
-0.233,0.915,0.28,79,0
-0.239,0.922,0.287,79,0
-0.242,0.928,0.294,79,0
-0.244,0.932,0.297,79,0
-0.246,0.937,0.3,79,0
-0.246,0.933,0.303,79,0
-0.245,0.921,0.302,79,0
-0.244,0.918,0.296,79,0
-0.242,0.928,0.29,79,0
-0.239,0.939,0.282,78,0
-0.237,0.946,0.269,78,0
-0.238,0.953,0.262,78,0
-0.238,0.943,0.271,78,0
-0.236,0.916,0.275,78,0
-0.236,0.902,0.276,78,0
-0.237,0.888,0.278,78,0
-0.239,0.859,0.274,78,0
-0.244,0.853,0.26,78,0
-0.254,0.916,0.244,78,0
-0.265,1.019,0.232,78,0
-0.267,1.07,0.229,78,0
-0.259,1.043,0.232,78,0
-0.251,0.984,0.235,78,0
-0.247,0.933,0.236,78,0
-0.252,0.916,0.236,78,0
-0.272,0.927,0.237,78,0
-0.288,0.944,0.24,78,0
-0.288,0.965,0.236,78,0
-0.293,1.031,0.224,78,0
-0.288,1.064,0.228,78,0
-0.268,0.984,0.245,78,0
-0.255,0.903,0.253,78,0
-0.239,0.897,0.253,78,0
-0.225,0.931,0.25,78,0
-0.228,0.957,0.245,78,0
-0.235,0.968,0.226,78,0
-0.238,0.978,0.204,78,0
-0.222,0.968,0.211,78,0
-0.186,0.924,0.234,78,0
-0.156,0.878,0.25,78,0
-0.152,0.853,0.26,78,0
-0.181,0.862,0.259,78,0
-0.216,0.907,0.259,78,0
-0.237,0.953,0.259,78,0
-0.251,0.982,0.257,78,0
-0.265,0.996,0.251,78,0
-0.266,0.998,0.244,78,0
-0.258,0.978,0.24,78,0
-0.253,0.94,0.239,78,0
-0.256,0.918,0.232,79,0
-0.27,0.918,0.223,79,0
-0.279,0.915,0.222,79,0
-0.284,0.922,0.218,79,0
-0.295,0.956,0.209,79,0
-0.3,0.995,0.209,79,0
-0.293,1.01,0.219,79,0
-0.273,0.991,0.237,79,0
-0.247,0.968,0.252,79,0
-0.223,0.972,0.255,79,0
-0.213,0.986,0.247,79,0
-0.215,0.98,0.231,79,0
-0.221,0.953,0.219,79,0
-0.226,0.911,0.209,79,0
-0.229,0.875,0.199,79,0
-0.234,0.875,0.19,79,0
-0.241,0.91,0.182,79,0
-0.251,0.956,0.182,79,0
-0.262,1.001,0.192,79,0
-0.255,1.016,0.215,79,0
-0.243,0.993,0.238,79,0
-0.245,0.965,0.255,79,0
-0.246,0.947,0.269,79,0
-0.236,0.934,0.27,79,0
-0.233,0.937,0.254,79,0
-0.239,0.961,0.23,79,0
-0.243,0.974,0.215,79,0
-0.244,0.953,0.208,79,0
-0.243,0.923,0.204,79,0
-0.241,0.91,0.204,79,0
-0.243,0.919,0.208,80,0
-0.246,0.945,0.213,80,0
-0.251,0.968,0.219,80,0
-0.251,0.971,0.232,80,0
-0.244,0.959,0.249,80,0
-0.234,0.941,0.261,80,0
-0.233,0.931,0.26,80,0
-0.239,0.946,0.251,80,0
-0.252,0.973,0.24,80,0
-0.267,0.989,0.229,80,0
-0.268,0.979,0.226,80,0
-0.257,0.947,0.227,80,0
-0.247,0.916,0.229,80,0
-0.245,0.913,0.229,80,0
-0.25,0.934,0.223,80,0
-0.256,0.957,0.209,80,0
-0.259,0.97,0.202,80,0
-0.256,0.965,0.208,80,0
-0.25,0.949,0.219,80,0
-0.243,0.937,0.23,80,0
-0.241,0.934,0.232,80,0
-0.245,0.947,0.223,80,0
-0.252,0.968,0.217,80,0
-0.256,0.97,0.222,80,0
-0.254,0.956,0.229,80,0
-0.251,0.948,0.228,80,0
-0.251,0.951,0.222,80,0
-0.251,0.96,0.219,80,0
-0.249,0.959,0.223,80,0
-0.246,0.943,0.223,80,0
-0.246,0.936,0.219,81,0
-0.248,0.948,0.218,81,0
-0.25,0.957,0.223,81,0
-0.252,0.957,0.233,81,0
-0.251,0.953,0.241,81,0
-0.252,0.955,0.245,81,0
-0.257,0.96,0.245,81,0
-0.263,0.961,0.241,81,0
-0.263,0.956,0.236,81,0
-0.263,0.95,0.233,81,0
-0.267,0.946,0.229,81,0
-0.265,0.943,0.217,81,0
-0.263,0.947,0.206,81,0
-0.259,0.955,0.206,81,0
-0.252,0.962,0.211,81,0
-0.243,0.965,0.219,81,0
-0.236,0.961,0.229,81,0
-0.232,0.954,0.238,81,0
-0.229,0.948,0.243,81,0
-0.232,0.943,0.243,81,0
-0.237,0.943,0.241,82,0
-0.242,0.952,0.236,82,0
-0.246,0.965,0.232,82,0
-0.249,0.969,0.235,82,0
-0.248,0.958,0.242,82,0
-0.246,0.947,0.245,82,0
-0.247,0.948,0.241,82,0
-0.25,0.956,0.233,82,0
-0.252,0.962,0.224,82,0
-0.252,0.96,0.222,82,0
-0.25,0.95,0.231,82,0
-0.248,0.937,0.243,82,0
-0.249,0.934,0.252,82,0
-0.251,0.944,0.255,82,0
-0.252,0.958,0.253,82,0
-0.25,0.966,0.252,82,0
-0.249,0.965,0.253,82,0
-0.247,0.959,0.247,82,0
-0.247,0.96,0.238,82,0
-0.246,0.97,0.231,82,0
-0.244,0.977,0.226,83,0
-0.237,0.973,0.225,83,0
-0.227,0.961,0.227,83,0
-0.218,0.945,0.232,83,0
-0.212,0.924,0.241,83,0
-0.206,0.903,0.255,83,0
-0.202,0.892,0.253,83,0
-0.213,0.897,0.24,83,0
-0.237,0.923,0.249,83,0
-0.246,0.949,0.279,83,0
-0.241,0.957,0.295,83,0
-0.242,0.957,0.288,83,0
-0.247,0.964,0.27,83,0
-0.254,0.981,0.251,83,0
-0.256,0.988,0.241,83,0
-0.252,0.969,0.237,83,0
-0.247,0.936,0.234,83,0
-0.239,0.917,0.236,83,0
-0.229,0.91,0.242,83,0
-0.226,0.913,0.249,83,0
-0.229,0.932,0.254,83,0
-0.233,0.958,0.254,83,0
-0.237,0.969,0.25,83,0
-0.244,0.963,0.237,83,0
-0.241,0.956,0.23,83,0
-0.221,0.95,0.224,83,0
-0.224,0.95,0.211,83,0
-0.241,0.958,0.21,83,0
-0.245,0.966,0.215,83,0
-0.249,0.973,0.22,83,0
-0.25,0.972,0.228,84,0
-0.251,0.965,0.233,84,0
-0.256,0.961,0.234,84,0
-0.259,0.963,0.229,84,0
-0.252,0.965,0.224,84,0
-0.249,0.963,0.218,84,0
-0.255,0.959,0.212,84,0
-0.256,0.958,0.209,84,0
-0.253,0.959,0.207,84,0
-0.25,0.961,0.206,84,0
-0.248,0.963,0.209,84,0
-0.246,0.962,0.212,84,0
-0.246,0.958,0.217,84,0
-0.245,0.954,0.221,84,0
-0.245,0.953,0.222,84,0
-0.247,0.956,0.22,84,0
-0.242,0.962,0.22,84,0
-0.235,0.968,0.221,84,0
-0.237,0.967,0.22,84,0
-0.239,0.963,0.219,84,0
-0.239,0.961,0.217,84,0
-0.241,0.961,0.213,84,0
-0.242,0.96,0.21,84,0
-0.243,0.958,0.208,84,0
-0.244,0.955,0.207,84,0
-0.245,0.954,0.208,84,0
-0.246,0.956,0.208,84,0
-0.247,0.956,0.208,84,0
-0.247,0.955,0.21,84,0
-0.249,0.956,0.212,84,0
-0.251,0.958,0.214,85,0
-0.252,0.96,0.215,85,0
-0.251,0.961,0.217,85,0
-0.249,0.96,0.219,85,0
-0.247,0.959,0.219,85,0
-0.245,0.957,0.217,85,0
-0.244,0.956,0.214,85,0
-0.245,0.956,0.213,85,0
-0.246,0.955,0.213,85,0
-0.247,0.955,0.214,85,0
-0.249,0.958,0.213,85,0
-0.251,0.961,0.212,85,0
-0.251,0.96,0.213,85,0
-0.251,0.96,0.212,85,0
-0.251,0.961,0.211,85,0
-0.252,0.961,0.209,85,0
-0.252,0.96,0.207,85,0
-0.251,0.958,0.208,85,0
-0.25,0.956,0.21,85,0
-0.25,0.957,0.211,85,0
-0.25,0.959,0.214,86,0
-0.25,0.96,0.216,86,0
-0.249,0.958,0.216,86,0
-0.248,0.957,0.215,86,0
-0.248,0.956,0.213,86,0
-0.249,0.956,0.211,86,0
-0.25,0.954,0.211,86,0
-0.25,0.952,0.212,86,0
-0.25,0.952,0.213,86,0
-0.251,0.955,0.214,86,0
-0.253,0.957,0.215,86,0
-0.252,0.958,0.216,86,0
-0.25,0.957,0.217,86,0
-0.25,0.956,0.217,86,0
-0.249,0.956,0.217,86,0
-0.249,0.956,0.217,86,0
-0.249,0.957,0.217,86,0
-0.25,0.956,0.218,86,0
-0.25,0.955,0.218,86,0
-0.251,0.956,0.219,86,0
-0.251,0.956,0.219,87,0
-0.252,0.957,0.219,87,0
-0.253,0.957,0.219,87,0
-0.254,0.957,0.22,87,0
-0.253,0.955,0.222,87,0
-0.251,0.953,0.222,87,0
-0.251,0.953,0.222,87,0
-0.252,0.955,0.221,87,0
-0.252,0.956,0.219,87,0
-0.251,0.954,0.218,87,0
-0.25,0.953,0.215,87,0
-0.249,0.953,0.213,87,0
-0.249,0.952,0.214,87,0
-0.249,0.952,0.214,87,0
-0.25,0.952,0.215,87,0
-0.25,0.953,0.216,87,0
-0.25,0.953,0.217,87,0
-0.251,0.952,0.217,87,0
-0.251,0.953,0.218,87,0
-0.251,0.955,0.22,87,0
-0.25,0.955,0.22,88,0
-0.25,0.955,0.22,88,0
-0.25,0.955,0.219,88,0
-0.251,0.956,0.219,88,0
-0.251,0.957,0.218,88,0
-0.25,0.956,0.219,88,0
-0.251,0.956,0.218,88,0
-0.251,0.956,0.218,88,0
-0.25,0.954,0.219,88,0
-0.25,0.954,0.219,88,0
-0.251,0.957,0.218,88,0
-0.251,0.956,0.217,88,0
-0.25,0.953,0.218,88,0
-0.25,0.953,0.218,88,0
-0.249,0.954,0.218,88,0
-0.249,0.954,0.217,88,0
-0.249,0.954,0.218,88,0
-0.25,0.953,0.218,88,0
-0.25,0.952,0.219,88,0
-0.251,0.952,0.219,88,0
-0.252,0.955,0.218,88,0
-0.253,0.958,0.218,88,0
-0.253,0.959,0.218,88,0
-0.252,0.959,0.219,88,0
-0.251,0.959,0.219,88,0
-0.25,0.96,0.219,88,0
-0.25,0.96,0.218,88,0
-0.249,0.959,0.218,88,0
-0.249,0.958,0.218,88,0
-0.25,0.957,0.216,88,0
-0.25,0.954,0.216,89,0
-0.251,0.952,0.214,89,0
-0.252,0.953,0.213,89,0
-0.255,0.955,0.211,89,0
-0.256,0.954,0.211,89,0
-0.254,0.953,0.213,89,0
-0.252,0.954,0.215,89,0
-0.25,0.955,0.216,89,0
-0.249,0.955,0.217,89,0
-0.248,0.957,0.218,89,0
-0.248,0.958,0.219,89,0
-0.247,0.959,0.219,89,0
-0.247,0.958,0.218,89,0
-0.247,0.958,0.217,89,0
-0.248,0.958,0.216,89,0
-0.249,0.958,0.215,89,0
-0.25,0.957,0.214,89,0
-0.25,0.956,0.215,89,0
-0.25,0.955,0.217,89,0
-0.25,0.955,0.219,89,0
-0.25,0.955,0.221,90,0
-0.25,0.955,0.222,90,0
-0.251,0.955,0.224,90,0
-0.25,0.955,0.225,90,0
-0.249,0.954,0.226,90,0
-0.25,0.956,0.225,90,0
-0.251,0.958,0.222,90,0
-0.251,0.957,0.219,90,0
-0.25,0.955,0.218,90,0
-0.249,0.953,0.216,90,0
-0.248,0.953,0.214,90,0
-0.247,0.955,0.215,90,0
-0.247,0.956,0.217,90,0
-0.247,0.954,0.22,90,0
-0.248,0.954,0.223,90,0
-0.25,0.955,0.225,90,0
-0.252,0.957,0.225,90,0
-0.253,0.957,0.224,90,0
-0.253,0.956,0.223,90,0
-0.253,0.955,0.22,90,0
-0.252,0.954,0.218,90,0
-0.251,0.954,0.217,90,0
-0.25,0.953,0.219,90,0
-0.249,0.952,0.222,90,0
-0.249,0.951,0.223,90,0
-0.249,0.95,0.222,90,0
-0.249,0.95,0.22,90,0
-0.25,0.953,0.218,90,0
-0.252,0.955,0.216,90,0
-0.251,0.955,0.215,90,0
-0.25,0.953,0.215,90,0
-0.249,0.953,0.217,90,0
-0.25,0.954,0.221,90,0
-0.25,0.955,0.224,90,0
-0.25,0.956,0.226,90,0
-0.25,0.956,0.226,90,0
-0.25,0.955,0.225,90,0
-0.251,0.953,0.224,90,0
-0.252,0.953,0.222,90,0
-0.252,0.954,0.22,90,0
-0.252,0.954,0.22,90,0
-0.252,0.953,0.219,90,0
-0.252,0.953,0.22,90,0
-0.252,0.955,0.219,90,0
-0.252,0.955,0.218,90,0
-0.251,0.952,0.216,90,0
-0.251,0.949,0.215,90,0
-0.253,0.952,0.217,90,0
-0.258,0.958,0.22,90,0
-0.259,0.961,0.223,90,0
-0.256,0.96,0.223,90,0
-0.254,0.957,0.222,90,0
-0.251,0.954,0.22,90,0
-0.249,0.953,0.218,90,0
-0.248,0.954,0.218,90,0
-0.247,0.955,0.217,90,0
-0.249,0.955,0.218,90,0
-0.25,0.954,0.219,90,0
-0.256,0.955,0.221,90,0
-0.262,0.958,0.22,90,0
-0.264,0.959,0.219,91,0
-0.261,0.956,0.219,91,0
-0.256,0.953,0.218,91,0
-0.252,0.95,0.214,91,0
-0.249,0.951,0.207,91,0
-0.247,0.952,0.202,91,0
-0.246,0.95,0.21,91,0
-0.247,0.951,0.223,91,0
-0.249,0.956,0.232,91,0
-0.251,0.964,0.235,91,0
-0.254,0.968,0.231,91,0
-0.255,0.965,0.223,91,0
-0.253,0.96,0.216,91,0
-0.251,0.956,0.21,91,0
-0.249,0.953,0.208,91,0
-0.248,0.952,0.209,91,0
-0.247,0.953,0.211,91,0
-0.245,0.958,0.223,91,0
-0.244,0.958,0.232,91,0
-0.245,0.958,0.237,91,0
-0.246,0.958,0.239,91,0
-0.247,0.954,0.238,91,0
-0.249,0.95,0.233,91,0
-0.251,0.948,0.228,91,0
-0.255,0.947,0.223,91,0
-0.257,0.946,0.221,91,0
-0.259,0.948,0.221,91,0
-0.259,0.95,0.223,91,0
-0.256,0.949,0.228,91,0
-0.253,0.947,0.232,91,0
-0.251,0.948,0.235,90,0
-0.25,0.949,0.236,90,0
-0.249,0.952,0.235,90,0
-0.249,0.952,0.232,90,0
-0.249,0.95,0.229,90,0
-0.249,0.951,0.225,90,0
-0.25,0.952,0.222,90,0
-0.25,0.951,0.222,90,0
-0.249,0.95,0.222,90,0
-0.25,0.952,0.223,89,0
-0.251,0.955,0.225,89,0
-0.25,0.954,0.226,89,0
-0.249,0.951,0.226,88,0
-0.249,0.949,0.226,88,0
-0.25,0.95,0.228,88,0
-0.252,0.953,0.231,87,0
-0.254,0.956,0.231,87,0
-0.255,0.955,0.23,87,0
-0.254,0.954,0.228,87,0
-0.254,0.953,0.226,87,0
-0.252,0.954,0.225,86,0
-0.251,0.954,0.224,86,0
-0.25,0.953,0.224,86,0
-0.249,0.952,0.225,86,0
-0.249,0.953,0.226,86,0
-0.249,0.955,0.225,85,0
-0.249,0.955,0.224,85,0
-0.248,0.953,0.223,85,0
-0.248,0.951,0.223,85,0
-0.248,0.951,0.225,84,0
-0.25,0.953,0.228,84,0
-0.251,0.955,0.229,84,0
-0.253,0.96,0.226,83,0
-0.254,0.966,0.224,83,0
-0.249,0.965,0.23,83,0
-0.243,0.956,0.236,82,0
-0.241,0.956,0.239,82,0
-0.245,0.96,0.237,82,0
-0.247,0.958,0.229,82,0
-0.247,0.954,0.222,81,0
-0.248,0.948,0.218,81,0
-0.248,0.943,0.217,81,0
-0.248,0.942,0.217,81,0
-0.248,0.945,0.219,81,0
-0.248,0.947,0.223,80,0
-0.247,0.942,0.229,80,0
-0.246,0.939,0.236,80,0
-0.247,0.946,0.239,80,0
-0.248,0.956,0.242,80,0
-0.25,0.958,0.242,79,0
-0.25,0.955,0.241,79,0
-0.25,0.951,0.24,79,0
-0.25,0.949,0.239,79,0
-0.25,0.95,0.238,79,0
-0.25,0.95,0.237,79,0
-0.25,0.95,0.235,78,0
-0.249,0.952,0.232,78,0
-0.248,0.953,0.23,78,0
-0.248,0.953,0.228,78,0
-0.247,0.952,0.229,78,0
-0.246,0.949,0.231,78,0
-0.247,0.95,0.233,78,0
-0.248,0.951,0.236,78,0
-0.249,0.951,0.238,78,0
-0.251,0.951,0.238,79,0
-0.253,0.951,0.238,79,0
-0.255,0.952,0.237,79,0
-0.256,0.953,0.234,79,0
-0.257,0.952,0.232,79,0
-0.256,0.95,0.23,79,0
-0.253,0.949,0.227,79,0
-0.252,0.951,0.225,79,0
-0.251,0.951,0.225,79,0
-0.25,0.95,0.224,79,0
-0.248,0.949,0.226,79,0
-0.248,0.949,0.227,79,0
-0.248,0.95,0.228,79,0
-0.249,0.95,0.228,79,0
-0.25,0.951,0.228,80,0
-0.25,0.951,0.228,80,0
-0.25,0.951,0.226,80,0
-0.251,0.951,0.224,80,0
-0.252,0.954,0.221,80,0
-0.253,0.956,0.222,80,0
-0.253,0.955,0.226,80,0
-0.251,0.953,0.229,80,0
-0.251,0.954,0.232,80,0
-0.252,0.955,0.232,80,0
-0.252,0.956,0.23,82,0
-0.251,0.956,0.229,82,0
-0.251,0.953,0.226,82,0
-0.251,0.952,0.224,82,0
-0.251,0.952,0.222,82,0
-0.251,0.952,0.221,82,0
-0.251,0.951,0.221,82,0
-0.251,0.95,0.221,82,0
-0.252,0.951,0.221,82,0
-0.253,0.953,0.222,82,0
-0.252,0.953,0.223,84,0
-0.252,0.952,0.224,84,0
-0.252,0.952,0.225,84,0
-0.253,0.953,0.224,84,0
-0.254,0.954,0.223,84,0
-0.253,0.953,0.223,84,0
-0.252,0.952,0.223,84,0
-0.251,0.953,0.223,84,0
-0.25,0.953,0.224,84,0
-0.251,0.954,0.224,84,0
-0.251,0.955,0.225,85,0
-0.253,0.953,0.226,85,0
-0.254,0.951,0.226,85,0
-0.257,0.952,0.224,85,0
-0.259,0.953,0.223,85,0
-0.26,0.954,0.221,85,0
-0.26,0.954,0.221,85,0
-0.257,0.952,0.222,85,0
-0.254,0.952,0.222,85,0
-0.252,0.952,0.222,85,0
-0.251,0.952,0.224,86,0
-0.251,0.953,0.227,86,0
-0.251,0.955,0.229,86,0
-0.251,0.955,0.232,86,0
-0.252,0.953,0.233,86,0
-0.253,0.951,0.232,86,0
-0.253,0.948,0.229,86,0
-0.254,0.948,0.224,86,0
-0.254,0.948,0.221,86,0
-0.253,0.947,0.22,86,0
-0.251,0.947,0.22,87,0
-0.251,0.95,0.22,87,0
-0.25,0.954,0.221,87,0
-0.249,0.953,0.223,87,0
-0.248,0.952,0.225,87,0
-0.248,0.951,0.227,87,0
-0.25,0.952,0.227,87,0
-0.252,0.954,0.227,87,0
-0.254,0.954,0.226,87,0
-0.256,0.952,0.225,87,0
-0.257,0.949,0.224,87,0
-0.257,0.949,0.223,87,0
-0.257,0.953,0.224,87,0
-0.255,0.953,0.227,87,0
-0.252,0.953,0.227,87,0
-0.251,0.955,0.226,87,0
-0.251,0.957,0.223,87,0
-0.25,0.957,0.22,87,0
-0.249,0.956,0.218,87,0
-0.248,0.954,0.218,87,0
-0.248,0.954,0.218,88,0
-0.249,0.954,0.221,88,0
-0.251,0.955,0.223,88,0
-0.253,0.957,0.227,88,0
-0.253,0.957,0.23,88,0
-0.254,0.958,0.232,88,0
-0.253,0.961,0.233,88,0
-0.252,0.96,0.233,88,0
-0.25,0.955,0.233,88,0
-0.25,0.955,0.231,88,0
-0.251,0.958,0.23,89,0
-0.251,0.958,0.226,89,0
-0.249,0.956,0.222,89,0
-0.246,0.954,0.22,89,0
-0.244,0.949,0.218,89,0
-0.244,0.944,0.219,89,0
-0.245,0.94,0.224,89,0
-0.247,0.938,0.227,89,0
-0.249,0.937,0.229,89,0
-0.252,0.941,0.227,89,0
-0.258,0.952,0.223,89,0
-0.268,0.958,0.221,89,0
-0.269,0.953,0.225,89,0
-0.261,0.943,0.236,89,0
-0.256,0.941,0.246,89,0
-0.258,0.951,0.25,89,0
-0.261,0.963,0.248,89,0
-0.26,0.964,0.243,89,0
-0.255,0.955,0.239,89,0
-0.251,0.947,0.235,89,0
-0.25,0.947,0.231,90,0
-0.25,0.95,0.226,90,0
-0.25,0.95,0.222,90,0
-0.249,0.947,0.22,90,0
-0.25,0.947,0.22,90,0
-0.25,0.949,0.222,90,0
-0.251,0.951,0.224,90,0
-0.252,0.951,0.227,90,0
-0.252,0.95,0.23,90,0
-0.252,0.951,0.233,90,0
-0.253,0.954,0.235,90,0
-0.253,0.955,0.235,90,0
-0.252,0.954,0.235,90,0
-0.251,0.953,0.234,90,0
-0.251,0.952,0.231,90,0
-0.251,0.953,0.228,90,0
-0.251,0.952,0.226,90,0
-0.252,0.951,0.225,90,0
-0.252,0.951,0.224,90,0
-0.253,0.95,0.225,90,0
-0.253,0.95,0.227,90,0
-0.255,0.951,0.228,90,0
-0.255,0.951,0.23,90,0
-0.255,0.95,0.232,90,0
-0.254,0.949,0.233,90,0
-0.255,0.95,0.235,90,0
-0.255,0.951,0.235,90,0
-0.255,0.95,0.236,90,0
-0.253,0.95,0.236,90,0
-0.252,0.95,0.235,90,0
-0.251,0.951,0.234,91,0
-0.251,0.951,0.233,91,0
-0.251,0.951,0.233,91,0
-0.251,0.951,0.234,91,0
-0.252,0.951,0.234,91,0
-0.252,0.95,0.235,91,0
-0.251,0.949,0.236,91,0
-0.251,0.95,0.236,91,0
-0.251,0.95,0.237,91,0
-0.25,0.949,0.237,91,0
-0.249,0.949,0.237,91,0
-0.249,0.95,0.237,91,0
-0.248,0.952,0.235,91,0
-0.248,0.952,0.234,91,0
-0.247,0.951,0.233,91,0
-0.247,0.951,0.233,91,0
-0.247,0.952,0.233,91,0
-0.248,0.953,0.234,91,0
-0.248,0.952,0.236,91,0
-0.248,0.95,0.239,91,0
-0.248,0.948,0.239,91,0
-0.248,0.946,0.235,91,0
-0.248,0.945,0.223,91,0
-0.247,0.934,0.214,91,0
-0.239,0.915,0.212,91,0
-0.229,0.919,0.209,91,0
-0.226,0.948,0.206,91,0
-0.233,0.974,0.2,91,0
-0.24,0.984,0.196,91,0
-0.238,0.983,0.197,91,0
-0.228,0.979,0.202,91,0
-0.217,0.974,0.209,91,0
-0.211,0.974,0.212,91,0
-0.203,0.977,0.21,91,0
-0.195,0.978,0.204,91,0
-0.191,0.982,0.193,91,0
-0.192,0.992,0.178,91,0
-0.195,1.002,0.166,91,0
-0.199,0.999,0.164,91,0
-0.205,0.984,0.174,91,0
-0.212,0.965,0.186,92,0
-0.22,0.951,0.192,92,0
-0.228,0.951,0.19,92,0
-0.235,0.966,0.181,92,0
-0.24,0.984,0.175,92,0
-0.243,0.995,0.18,92,0
-0.243,0.992,0.195,92,0
-0.241,0.972,0.213,92,0
-0.24,0.957,0.225,92,0
-0.247,0.968,0.226,92,0
-0.263,0.996,0.219,92,0
-0.279,1.013,0.212,92,0
-0.284,0.996,0.214,92,0
-0.271,0.967,0.226,92,0
-0.247,0.952,0.243,92,0
-0.231,0.956,0.251,92,0
-0.229,0.966,0.247,92,0
-0.221,0.949,0.24,92,0
-0.207,0.906,0.233,92,0
-0.189,0.876,0.224,92,0
-0.177,0.888,0.213,92,0
-0.182,0.93,0.208,92,0
-0.181,0.96,0.217,92,0
-0.155,0.958,0.239,92,0
-0.129,0.948,0.263,92,0
-0.122,0.951,0.288,92,0
-0.122,0.962,0.311,92,0
-0.13,0.966,0.314,92,0
-0.151,0.957,0.304,92,0
-0.181,0.947,0.286,92,0
-0.206,0.944,0.27,92,0
-0.219,0.945,0.262,92,0
-0.226,0.948,0.266,92,0
-0.232,0.954,0.281,92,0
-0.235,0.965,0.301,92,0
-0.23,0.975,0.325,92,0
-0.224,0.974,0.346,92,0
-0.223,0.953,0.356,92,0
-0.221,0.919,0.351,92,0
-0.222,0.899,0.332,92,0
-0.227,0.908,0.31,93,0
-0.233,0.936,0.293,93,0
-0.236,0.962,0.285,93,0
-0.229,0.976,0.288,93,0
-0.218,0.979,0.293,93,0
-0.206,0.977,0.296,93,0
-0.197,0.969,0.293,93,0
-0.195,0.956,0.284,93,0
-0.196,0.937,0.272,93,0
-0.201,0.918,0.257,93,0
-0.212,0.91,0.246,93,0
-0.224,0.913,0.24,93,0
-0.235,0.924,0.247,93,0
-0.241,0.942,0.272,93,0
-0.244,0.943,0.296,93,0
-0.255,0.938,0.294,93,0
-0.269,0.964,0.276,93,0
-0.279,0.996,0.259,93,0
-0.28,0.988,0.247,93,0
-0.267,0.945,0.235,93,0
-0.258,0.91,0.222,94,0
-0.256,0.909,0.216,94,0
-0.259,0.926,0.214,94,0
-0.257,0.939,0.219,94,0
-0.251,0.952,0.23,94,0
-0.246,0.967,0.241,94,0
-0.238,0.978,0.248,94,0
-0.231,0.982,0.248,94,0
-0.226,0.978,0.246,94,0
-0.22,0.969,0.24,94,0
-0.217,0.957,0.233,94,0
-0.217,0.945,0.224,94,0
-0.223,0.937,0.215,94,0
-0.228,0.931,0.212,94,0
-0.232,0.922,0.214,94,0
-0.236,0.915,0.219,94,0
-0.238,0.907,0.225,94,0
-0.241,0.904,0.224,94,0
-0.25,0.929,0.216,94,0
-0.257,0.972,0.205,94,0
-0.26,1,0.197,94,0
-0.258,0.999,0.201,94,0
-0.252,0.979,0.215,94,0
-0.247,0.953,0.226,94,0
-0.245,0.935,0.23,94,0
-0.248,0.942,0.226,94,0
-0.254,0.963,0.213,94,0
-0.264,0.982,0.196,94,0
-0.27,0.991,0.184,94,0
-0.266,0.981,0.181,94,0
-0.257,0.947,0.188,94,0
-0.252,0.918,0.191,94,0
-0.255,0.928,0.188,94,0
-0.26,0.959,0.184,94,0
-0.267,0.984,0.186,94,0
-0.271,1.005,0.211,94,0
-0.255,1.01,0.249,94,0
-0.222,0.996,0.285,94,0
-0.175,0.971,0.321,94,0
-0.138,0.946,0.319,94,0
-0.165,0.938,0.283,94,0
-0.227,0.945,0.25,94,0
-0.263,0.942,0.217,94,0
-0.276,0.93,0.18,94,0
-0.277,0.921,0.157,94,0
-0.27,0.927,0.15,94,0
-0.268,0.93,0.152,94,0
-0.268,0.918,0.167,94,0
-0.266,0.912,0.188,94,0
-0.265,0.929,0.212,94,0
-0.258,0.947,0.236,95,0
-0.254,0.949,0.261,95,0
-0.252,0.947,0.28,95,0
-0.25,0.955,0.283,95,0
-0.246,0.97,0.275,95,0
-0.245,0.978,0.265,95,0
-0.247,0.976,0.252,95,0
-0.251,0.972,0.236,95,0
-0.256,0.975,0.218,95,0
-0.257,0.98,0.206,95,0
-0.255,0.974,0.203,95,0
-0.252,0.963,0.205,95,0
-0.254,0.955,0.206,95,0
-0.257,0.946,0.211,95,0
-0.254,0.935,0.22,95,0
-0.253,0.934,0.228,95,0
-0.254,0.941,0.232,95,0
-0.255,0.948,0.236,95,0
-0.252,0.952,0.239,95,0
-0.249,0.955,0.24,95,0
-0.246,0.955,0.24,95,0
-0.244,0.953,0.24,95,0
-0.242,0.95,0.242,95,0
-0.24,0.942,0.242,95,0
-0.24,0.936,0.24,95,0
-0.244,0.932,0.236,95,0
-0.249,0.936,0.228,95,0
-0.257,0.95,0.219,95,0
-0.261,0.965,0.217,95,0
-0.261,0.972,0.218,95,0
-0.256,0.968,0.219,95,0
-0.248,0.961,0.214,95,0
-0.245,0.956,0.209,95,0
-0.24,0.955,0.213,95,0
-0.234,0.951,0.225,95,0
-0.229,0.946,0.243,95,0
-0.222,0.947,0.256,95,0
-0.221,0.953,0.26,95,0
-0.228,0.961,0.259,95,0
-0.233,0.965,0.253,95,0
-0.239,0.962,0.241,95,0
-0.244,0.958,0.229,95,0
-0.249,0.956,0.219,95,0
-0.255,0.951,0.216,95,0
-0.258,0.943,0.222,95,0
-0.259,0.937,0.229,95,0
-0.259,0.938,0.237,95,0
-0.258,0.944,0.244,95,0
-0.255,0.952,0.249,95,0
-0.251,0.955,0.25,95,0
-0.248,0.953,0.249,95,0
-0.247,0.951,0.243,95,0
-0.245,0.951,0.236,95,0
-0.245,0.951,0.229,95,0
-0.247,0.957,0.223,95,0
-0.247,0.962,0.221,95,0
-0.246,0.961,0.222,95,0
-0.245,0.96,0.224,95,0
-0.242,0.96,0.228,95,0
-0.24,0.962,0.23,95,0
-0.24,0.965,0.23,96,0
-0.239,0.968,0.23,96,0
-0.239,0.965,0.232,96,0
-0.24,0.962,0.234,96,0
-0.241,0.964,0.235,96,0
-0.243,0.967,0.236,96,0
-0.245,0.966,0.236,96,0
-0.248,0.963,0.235,96,0
-0.249,0.96,0.234,96,0
-0.249,0.96,0.234,96,0
-0.249,0.957,0.234,96,0
-0.249,0.95,0.233,96,0
-0.248,0.944,0.232,96,0
-0.247,0.938,0.23,96,0
-0.247,0.934,0.229,96,0
-0.25,0.933,0.225,96,0
-0.254,0.935,0.218,96,0
-0.258,0.943,0.216,96,0
-0.262,0.956,0.22,96,0
-0.26,0.967,0.226,96,0
-0.251,0.962,0.237,96,0
-0.238,0.944,0.248,96,0
-0.228,0.928,0.249,96,0
-0.225,0.927,0.242,96,0
-0.233,0.945,0.236,96,0
-0.242,0.96,0.232,96,0
-0.249,0.962,0.23,96,0
-0.255,0.957,0.232,96,0
-0.26,0.949,0.236,96,0
-0.263,0.947,0.238,96,0
-0.27,0.952,0.237,96,0
-0.277,0.959,0.235,96,0
-0.273,0.958,0.231,96,0
-0.266,0.956,0.229,96,0
-0.259,0.957,0.223,96,0
-0.254,0.956,0.21,96,0
-0.25,0.948,0.197,96,0
-0.247,0.93,0.192,96,0
-0.247,0.918,0.197,96,0
-0.249,0.926,0.208,96,0
-0.25,0.947,0.218,96,0
-0.253,0.969,0.227,96,0
-0.254,0.978,0.239,96,0
-0.255,0.973,0.25,96,0
-0.259,0.962,0.25,96,0
-0.266,0.956,0.239,96,0
-0.275,0.947,0.232,96,0
-0.277,0.945,0.221,96,0
-0.283,0.953,0.203,96,0
-0.283,0.958,0.194,96,0
-0.276,0.963,0.193,96,0
-0.273,0.971,0.197,96,0
-0.262,0.974,0.202,96,0
-0.247,0.97,0.193,96,0
-0.245,0.967,0.189,96,0
-0.261,0.969,0.205,96,0
-0.267,0.964,0.219,96,0
-0.273,0.945,0.22,96,0
-0.287,0.926,0.217,96,0
-0.292,0.918,0.22,96,0
-0.295,0.928,0.221,96,0
-0.291,0.945,0.213,96,0
-0.279,0.954,0.203,96,0
-0.271,0.962,0.197,96,0
-0.264,0.971,0.197,96,0
-0.257,0.979,0.198,96,0
-0.251,0.978,0.199,96,0
-0.246,0.962,0.203,96,0
-0.239,0.94,0.209,96,0
-0.238,0.925,0.212,96,0
-0.241,0.929,0.213,96,0
-0.246,0.947,0.208,96,0
-0.25,0.965,0.198,96,0
-0.252,0.976,0.195,96,0
-0.259,0.978,0.201,96,0
-0.262,0.977,0.213,96,0
-0.257,0.978,0.219,96,0
-0.254,0.98,0.216,96,0
-0.252,0.982,0.212,96,0
-0.251,0.984,0.212,96,0
-0.248,0.985,0.216,96,0
-0.244,0.974,0.228,96,0
-0.242,0.954,0.244,96,0
-0.24,0.935,0.249,96,0
-0.238,0.918,0.235,96,0
-0.24,0.907,0.217,96,0
-0.249,0.92,0.204,96,0
-0.261,0.941,0.205,96,0
-0.273,0.942,0.21,96,0
-0.274,0.928,0.208,96,0
-0.268,0.923,0.199,96,0
-0.267,0.942,0.187,96,0
-0.265,0.977,0.187,96,0
-0.258,0.991,0.201,96,0
-0.246,0.987,0.215,96,0
-0.225,0.981,0.216,96,0
-0.212,0.966,0.211,96,0
-0.219,0.946,0.217,96,0
-0.232,0.943,0.229,96,0
-0.241,0.947,0.236,96,0
-0.252,0.939,0.234,96,0
-0.262,0.931,0.226,96,0
-0.273,0.942,0.211,96,0
-0.286,0.988,0.188,96,0
-0.296,1.027,0.178,96,0
-0.297,1.024,0.184,96,0
-0.29,1.007,0.199,96,0
-0.271,0.97,0.22,96,0
-0.253,0.926,0.239,96,0
-0.243,0.906,0.25,96,0
-0.241,0.907,0.25,96,0
-0.239,0.916,0.246,96,0
-0.233,0.934,0.241,96,0
-0.221,0.956,0.23,96,0
-0.212,0.97,0.218,96,0
-0.209,0.98,0.208,96,0
-0.203,0.985,0.196,96,0
-0.199,0.962,0.205,96,0
-0.196,0.927,0.239,96,0
-0.177,0.927,0.27,96,0
-0.157,0.952,0.298,96,0
-0.159,0.961,0.316,96,0
-0.176,0.957,0.321,96,0
-0.193,0.962,0.313,96,0
-0.212,0.97,0.304,96,0
-0.227,0.974,0.294,96,0
-0.237,0.971,0.286,96,0
-0.243,0.962,0.275,96,0
-0.244,0.956,0.264,96,0
-0.244,0.946,0.26,96,0
-0.245,0.934,0.26,96,0
-0.245,0.93,0.267,96,0
-0.242,0.929,0.279,96,0
-0.24,0.927,0.291,96,0
-0.239,0.925,0.298,96,0
-0.239,0.919,0.299,96,0
-0.239,0.912,0.299,96,0
-0.239,0.906,0.296,96,0
-0.24,0.91,0.296,96,0
-0.242,0.927,0.301,96,0
-0.242,0.944,0.305,97,0
-0.239,0.954,0.311,97,0
-0.23,0.951,0.318,97,0
-0.223,0.941,0.319,97,0
-0.218,0.939,0.314,97,0
-0.218,0.964,0.308,97,0
-0.223,0.985,0.299,97,0
-0.224,0.968,0.285,97,0
-0.223,0.934,0.268,97,0
-0.223,0.926,0.25,97,0
-0.228,0.942,0.237,97,0
-0.234,0.959,0.227,97,0
-0.237,0.961,0.22,97,0
-0.237,0.946,0.218,97,0
-0.239,0.926,0.215,97,0
-0.242,0.914,0.212,97,0
-0.246,0.916,0.209,97,0
-0.25,0.927,0.208,97,0
-0.255,0.941,0.209,97,0
-0.261,0.957,0.211,97,0
-0.265,0.972,0.213,97,0
-0.263,0.977,0.217,97,0
-0.257,0.966,0.224,97,0
-0.251,0.95,0.227,97,0
-0.247,0.936,0.228,97,0
-0.243,0.916,0.221,97,0
-0.243,0.912,0.206,97,0
-0.252,0.946,0.196,97,0
-0.266,1.004,0.193,97,0
-0.275,1.039,0.198,97,0
-0.268,1.016,0.209,97,0
-0.257,0.962,0.218,97,0
-0.25,0.92,0.216,97,0
-0.246,0.912,0.207,97,0
-0.249,0.937,0.195,97,0
-0.261,0.966,0.184,97,0
-0.273,0.983,0.179,97,0
-0.28,0.995,0.174,97,0
-0.274,1,0.178,97,0
-0.258,0.993,0.184,97,0
-0.25,0.963,0.186,97,0
-0.239,0.919,0.188,97,0
-0.245,0.895,0.178,97,0
-0.275,0.903,0.168,97,0
-0.297,0.934,0.156,97,0
-0.324,0.997,0.14,97,0
-0.345,1.034,0.145,97,0
-0.331,1.005,0.171,97,0
-0.3,0.96,0.199,97,0
-0.274,0.932,0.217,97,0
-0.258,0.919,0.228,97,0
-0.251,0.907,0.236,97,0
-0.249,0.906,0.237,97,0
-0.247,0.927,0.234,97,0
-0.247,0.956,0.23,97,0
-0.259,0.972,0.208,97,0
-0.279,0.971,0.172,97,0
-0.292,0.965,0.148,97,0
-0.3,0.95,0.146,97,0
-0.298,0.922,0.167,97,0
-0.289,0.899,0.193,97,0
-0.283,0.893,0.214,97,0
-0.284,0.908,0.23,97,0
-0.299,0.931,0.235,97,0
-0.325,0.95,0.23,97,0
-0.342,0.962,0.22,97,0
-0.341,0.965,0.211,97,0
-0.331,0.963,0.2,97,0
-0.319,0.963,0.189,97,0
-0.306,0.966,0.18,97,0
-0.298,0.969,0.176,98,0
-0.291,0.97,0.173,98,0
-0.287,0.972,0.167,98,0
-0.28,0.969,0.169,98,0
-0.271,0.962,0.175,98,0
-0.266,0.958,0.174,98,0
-0.266,0.958,0.172,98,0
-0.27,0.957,0.172,98,0
-0.28,0.955,0.174,98,0
-0.286,0.952,0.182,98,0
-0.283,0.952,0.182,98,0
-0.283,0.951,0.174,98,0
-0.282,0.946,0.171,98,0
-0.283,0.941,0.173,98,0
-0.293,0.94,0.179,98,0
-0.301,0.945,0.184,98,0
-0.31,0.948,0.188,98,0
-0.316,0.954,0.193,98,0
-0.32,0.961,0.194,98,0
-0.324,0.964,0.195,98,0
-0.323,0.964,0.195,98,0
-0.316,0.967,0.187,98,0
-0.309,0.971,0.178,98,0
-0.299,0.977,0.175,98,0
-0.288,0.974,0.174,98,0
-0.279,0.962,0.176,98,0
-0.273,0.952,0.175,98,0
-0.274,0.947,0.175,98,0
-0.275,0.945,0.175,98,0
-0.277,0.945,0.175,98,0
-0.276,0.946,0.176,98,0
-0.272,0.95,0.181,98,0
