Sample Count,Acceleration X (g),Acceleration Y (g),Acceleration Z (g),Heart Rate (bpm),Activity
0,-0.662,-0.313,0.63,60,0
1,-0.677,-0.31,0.642,60,0
2,-0.677,-0.307,0.664,60,0
3,-0.656,-0.315,0.681,60,0
4,-0.655,-0.32,0.677,60,0
5,-0.673,-0.312,0.66,60,0
6,-0.687,-0.304,0.654,60,0
7,-0.678,-0.305,0.651,60,0
8,-0.674,-0.305,0.652,60,0
9,-0.666,-0.301,0.651,60,0
10,-0.658,-0.31,0.635,60,0
11,-0.682,-0.315,0.62,60,0
12,-0.691,-0.313,0.598,60,0
13,-0.698,-0.312,0.576,60,0
14,-0.751,-0.31,0.575,60,0
15,-0.759,-0.312,0.564,60,0
16,-0.768,-0.294,0.565,60,0
17,-0.798,-0.268,0.573,60,0
18,-0.775,-0.271,0.544,60,0
19,-0.774,-0.285,0.513,60,0
20,-0.776,-0.276,0.486,60,0
21,-0.813,-0.258,0.454,60,0
22,-0.84,-0.258,0.47,60,0
23,-0.84,-0.258,0.47,60,0
24,-0.84,-0.258,0.47,60,0
25,-0.826,-0.283,0.508,60,0
26,-0.868,-0.295,0.468,60,0
27,-0.882,-0.278,0.422,60,0
28,-0.842,-0.282,0.439,60,0
29,-0.847,-0.285,0.437,60,0
30,-0.844,-0.283,0.444,60,0
31,-0.823,-0.286,0.469,60,0
32,-0.81,-0.265,0.446,60,0
33,-0.791,-0.249,0.428,60,0
34,-0.82,-0.259,0.448,60,0
35,-0.858,-0.277,0.464,60,0
36,-0.846,-0.277,0.448,60,0
37,-0.807,-0.275,0.421,60,0
38,-0.792,-0.303,0.403,60,0
39,-0.771,-0.319,0.355,60,0
40,-0.703,-0.318,0.322,60,0
41,-0.571,-0.305,0.281,60,0
42,-0.593,-0.343,0.21,60,0
43,-0.757,-0.444,0.182,60,0
44,-0.834,-0.537,0.205,60,0
45,-0.866,-0.62,0.233,60,0
46,-0.891,-0.696,0.211,60,0
47,-0.916,-0.753,0.186,60,0
48,-0.914,-0.766,0.173,60,0
49,-0.883,-0.756,0.127,60,0
50,-0.859,-0.749,0.101,60,0
51,-0.821,-0.74,0.104,60,0
52,-0.763,-0.718,0.089,60,0
53,-0.72,-0.697,0.085,60,0
54,-0.683,-0.678,0.086,60,0
55,-0.686,-0.666,0.072,60,0
56,-0.678,-0.666,0.083,60,0
57,-0.669,-0.666,0.093,60,0
58,-0.692,-0.681,0.093,60,0
59,-0.7,-0.715,0.109,59,0
60,-0.733,-0.722,0.09,59,0
61,-0.697,-0.714,0.085,59,0
62,-0.598,-0.723,0.113,59,0
63,-0.565,-0.702,0.066,59,0
64,-0.674,-0.662,-0.043,59,0
65,-0.672,-0.637,-0.078,59,0
66,-0.539,-0.647,-0.056,59,0
67,-0.543,-0.691,-0.081,59,0
68,-0.562,-0.755,-0.114,59,0
69,-0.51,-0.819,-0.093,59,0
70,-0.453,-0.875,-0.041,59,0
71,-0.47,-0.948,-0.003,59,0
72,-0.503,-0.989,-0.021,59,0
73,-0.473,-0.989,-0.066,59,0
74,-0.399,-0.978,-0.094,59,0
75,-0.35,-0.961,-0.105,59,0
76,-0.358,-0.965,-0.089,59,0
77,-0.371,-0.977,-0.078,59,0
78,-0.377,-0.968,-0.093,59,0
79,-0.397,-0.968,-0.09,59,0
80,-0.378,-0.971,-0.059,59,0
81,-0.327,-0.96,-0.043,59,0
82,-0.29,-0.94,-0.049,59,0
83,-0.267,-0.917,-0.051,59,0
84,-0.273,-0.911,-0.047,59,0
85,-0.315,-0.922,-0.038,59,0
86,-0.367,-0.93,-0.033,59,0
87,-0.402,-0.934,-0.042,59,0
88,-0.401,-0.937,-0.042,59,0
89,-0.372,-0.937,-0.025,59,0
90,-0.354,-0.927,-0.019,59,0
91,-0.363,-0.912,-0.023,59,0
92,-0.374,-0.909,-0.024,59,0
93,-0.382,-0.91,-0.019,59,0
94,-0.392,-0.911,-0.022,59,0
95,-0.396,-0.918,-0.018,59,0
96,-0.394,-0.923,-0.008,59,0
97,-0.389,-0.916,-0.01,59,0
98,-0.389,-0.912,-0.015,59,0
99,-0.395,-0.919,-0.022,59,0
100,-0.396,-0.927,-0.035,59,0
101,-0.381,-0.927,-0.04,59,0
102,-0.367,-0.919,-0.032,59,0
103,-0.382,-0.916,-0.032,59,0
104,-0.422,-0.925,-0.047,59,0
105,-0.447,-0.917,-0.062,59,0
106,-0.426,-0.908,-0.059,59,0
107,-0.377,-0.919,-0.042,59,0
108,-0.336,-0.928,-0.035,59,0
109,-0.325,-0.927,-0.04,59,0
110,-0.343,-0.927,-0.042,59,0
111,-0.368,-0.927,-0.043,59,0
112,-0.386,-0.927,-0.048,59,0
113,-0.393,-0.933,-0.046,59,0
114,-0.385,-0.94,-0.042,59,0
115,-0.365,-0.934,-0.04,59,0
116,-0.357,-0.922,-0.034,59,0
117,-0.367,-0.925,-0.033,59,0
118,-0.378,-0.928,-0.039,59,0
119,-0.383,-0.923,-0.038,59,0
120,-0.386,-0.922,-0.028,59,0
121,-0.388,-0.925,-0.022,59,0
122,-0.389,-0.928,-0.025,59,0
123,-0.387,-0.929,-0.027,59,0
124,-0.388,-0.927,-0.029,59,0
125,-0.394,-0.925,-0.031,59,0
126,-0.4,-0.924,-0.029,59,0
127,-0.398,-0.922,-0.024,59,0
128,-0.391,-0.92,-0.022,59,0
129,-0.386,-0.919,-0.024,60,0
130,-0.385,-0.921,-0.026,60,0
131,-0.39,-0.925,-0.027,60,0
132,-0.392,-0.926,-0.025,60,0
133,-0.384,-0.921,-0.021,60,0
134,-0.38,-0.919,-0.018,60,0
135,-0.384,-0.921,-0.018,60,0
136,-0.392,-0.92,-0.018,60,0
137,-0.397,-0.916,-0.02,60,0
138,-0.396,-0.917,-0.02,60,0
139,-0.393,-0.919,-0.018,60,0
140,-0.393,-0.917,-0.019,60,0
141,-0.393,-0.917,-0.022,60,0
142,-0.393,-0.918,-0.023,60,0
143,-0.393,-0.915,-0.022,60,0
144,-0.393,-0.913,-0.022,60,0
145,-0.393,-0.914,-0.026,60,0
146,-0.394,-0.915,-0.028,60,0
147,-0.398,-0.916,-0.026,60,0
148,-0.403,-0.911,-0.027,60,0
149,-0.404,-0.908,-0.03,60,0
150,-0.4,-0.913,-0.028,60,0
151,-0.396,-0.915,-0.027,60,0
152,-0.394,-0.911,-0.027,60,0
153,-0.396,-0.91,-0.028,60,0
154,-0.403,-0.914,-0.028,60,0
155,-0.412,-0.916,-0.029,60,0
156,-0.412,-0.911,-0.028,60,0
157,-0.405,-0.908,-0.025,60,0
158,-0.406,-0.91,-0.025,60,0
159,-0.409,-0.911,-0.025,61,0
160,-0.406,-0.911,-0.023,61,0
161,-0.406,-0.911,-0.024,61,0
162,-0.408,-0.91,-0.027,61,0
163,-0.408,-0.905,-0.029,61,0
164,-0.408,-0.899,-0.029,61,0
165,-0.41,-0.9,-0.03,61,0
166,-0.413,-0.902,-0.03,61,0
167,-0.413,-0.903,-0.028,61,0
168,-0.413,-0.906,-0.026,61,0
169,-0.41,-0.91,-0.025,61,0
170,-0.407,-0.911,-0.024,61,0
171,-0.408,-0.912,-0.025,61,0
172,-0.408,-0.911,-0.022,61,0
173,-0.407,-0.906,-0.02,61,0
174,-0.409,-0.903,-0.021,61,0
175,-0.407,-0.907,-0.023,61,0
176,-0.401,-0.903,-0.025,61,0
177,-0.404,-0.894,-0.024,61,0
178,-0.414,-0.896,-0.016,61,0
179,-0.424,-0.906,-0.008,62,0
180,-0.432,-0.907,-0.007,62,0
181,-0.437,-0.901,-0.007,62,0
182,-0.433,-0.898,-0.01,62,0
183,-0.417,-0.905,-0.009,62,0
184,-0.409,-0.911,-0.008,62,0
185,-0.414,-0.909,-0.01,62,0
186,-0.415,-0.904,-0.01,62,0
187,-0.41,-0.904,-0.009,62,0
188,-0.409,-0.907,-0.01,62,0
189,-0.406,-0.909,-0.011,62,0
190,-0.401,-0.907,-0.009,62,0
191,-0.403,-0.904,-0.008,62,0
192,-0.409,-0.903,-0.01,62,0
193,-0.415,-0.903,-0.01,62,0
194,-0.42,-0.902,-0.009,62,0
195,-0.42,-0.9,-0.011,62,0
196,-0.416,-0.902,-0.013,62,0
197,-0.412,-0.903,-0.014,62,0
198,-0.41,-0.902,-0.013,62,0
199,-0.412,-0.903,-0.012,63,0
200,-0.413,-0.906,-0.013,63,0
201,-0.413,-0.906,-0.017,63,0
202,-0.411,-0.906,-0.021,63,0
203,-0.406,-0.905,-0.025,63,0
204,-0.405,-0.904,-0.026,63,0
205,-0.412,-0.906,-0.027,63,0
206,-0.412,-0.908,-0.027,63,0
207,-0.406,-0.908,-0.025,63,0
208,-0.403,-0.907,-0.025,63,0
209,-0.406,-0.909,-0.026,63,0
210,-0.405,-0.909,-0.027,63,0
211,-0.401,-0.908,-0.026,63,0
212,-0.402,-0.91,-0.023,63,0
213,-0.405,-0.91,-0.023,63,0
214,-0.403,-0.91,-0.026,63,0
215,-0.401,-0.914,-0.027,63,0
216,-0.401,-0.917,-0.025,63,0
217,-0.401,-0.918,-0.024,63,0
218,-0.398,-0.918,-0.028,63,0
219,-0.396,-0.915,-0.03,64,0
220,-0.397,-0.911,-0.028,64,0
221,-0.402,-0.912,-0.027,64,0
222,-0.406,-0.913,-0.031,64,0
223,-0.4,-0.913,-0.034,64,0
224,-0.394,-0.914,-0.032,64,0
225,-0.392,-0.914,-0.032,64,0
226,-0.395,-0.913,-0.033,64,0
227,-0.399,-0.913,-0.031,64,0
228,-0.396,-0.914,-0.031,64,0
229,-0.396,-0.916,-0.034,64,0
230,-0.398,-0.919,-0.034,64,0
231,-0.396,-0.919,-0.029,64,0
232,-0.393,-0.914,-0.029,64,0
233,-0.393,-0.912,-0.032,64,0
234,-0.4,-0.918,-0.029,64,0
235,-0.4,-0.92,-0.028,64,0
236,-0.392,-0.912,-0.033,64,0
237,-0.393,-0.904,-0.033,64,0
238,-0.407,-0.906,-0.028,64,0
239,-0.418,-0.913,-0.027,65,0
240,-0.414,-0.911,-0.031,65,0
241,-0.414,-0.903,-0.036,65,0
242,-0.428,-0.905,-0.037,65,0
243,-0.422,-0.907,-0.033,65,0
244,-0.399,-0.906,-0.027,65,0
245,-0.391,-0.908,-0.024,65,0
246,-0.394,-0.908,-0.028,65,0
247,-0.405,-0.91,-0.029,65,0
248,-0.415,-0.915,-0.021,65,0
249,-0.418,-0.912,-0.019,66,0
250,-0.412,-0.905,-0.027,66,0
251,-0.401,-0.906,-0.032,66,0
252,-0.392,-0.916,-0.034,66,0
253,-0.385,-0.919,-0.032,66,0
254,-0.385,-0.916,-0.027,66,0
255,-0.389,-0.921,-0.027,66,0
256,-0.391,-0.926,-0.028,66,0
257,-0.39,-0.921,-0.03,66,0
258,-0.388,-0.914,-0.034,66,0
259,-0.389,-0.917,-0.033,66,0
260,-0.385,-0.928,-0.034,66,0
261,-0.366,-0.938,-0.041,66,0
262,-0.34,-0.941,-0.033,66,0
263,-0.345,-0.935,-0.022,66,0
264,-0.376,-0.923,-0.028,66,0
265,-0.391,-0.917,-0.034,66,0
266,-0.387,-0.919,-0.028,66,0
267,-0.381,-0.922,-0.026,66,0
268,-0.383,-0.924,-0.037,66,0
269,-0.381,-0.926,-0.045,67,0
270,-0.375,-0.925,-0.038,67,0
271,-0.379,-0.926,-0.035,67,0
272,-0.394,-0.928,-0.041,67,0
273,-0.405,-0.918,-0.042,67,0
274,-0.401,-0.904,-0.04,67,0
275,-0.396,-0.905,-0.042,67,0
276,-0.398,-0.914,-0.043,67,0
277,-0.398,-0.919,-0.041,67,0
278,-0.394,-0.922,-0.041,67,0
279,-0.389,-0.922,-0.043,67,0
280,-0.387,-0.92,-0.046,67,0
281,-0.385,-0.92,-0.051,67,0
282,-0.383,-0.927,-0.053,67,0
283,-0.384,-0.934,-0.052,67,0
284,-0.384,-0.934,-0.052,67,0
285,-0.381,-0.932,-0.053,67,0
286,-0.377,-0.932,-0.056,67,0
287,-0.379,-0.932,-0.059,67,0
288,-0.385,-0.922,-0.06,67,0
289,-0.385,-0.912,-0.056,68,0
290,-0.383,-0.916,-0.052,68,0
291,-0.387,-0.925,-0.054,68,0
292,-0.393,-0.93,-0.058,68,0
293,-0.394,-0.93,-0.061,68,0
294,-0.399,-0.929,-0.06,68,0
295,-0.405,-0.923,-0.058,68,0
296,-0.399,-0.909,-0.053,68,0
297,-0.392,-0.9,-0.045,68,0
298,-0.394,-0.902,-0.043,68,0
299,-0.398,-0.907,-0.045,68,0
300,-0.399,-0.913,-0.042,68,0
301,-0.397,-0.919,-0.037,68,0
302,-0.396,-0.921,-0.041,68,0
303,-0.395,-0.918,-0.048,68,0
304,-0.392,-0.916,-0.047,68,0
305,-0.39,-0.92,-0.045,68,0
306,-0.389,-0.922,-0.046,68,0
307,-0.389,-0.917,-0.048,68,0
308,-0.388,-0.916,-0.054,68,0
309,-0.39,-0.922,-0.058,67,0
310,-0.393,-0.927,-0.056,67,0
311,-0.397,-0.929,-0.051,67,0
312,-0.398,-0.926,-0.046,67,0
313,-0.392,-0.92,-0.043,67,0
314,-0.385,-0.918,-0.046,67,0
315,-0.385,-0.918,-0.048,67,0
316,-0.39,-0.914,-0.045,67,0
317,-0.398,-0.915,-0.046,67,0
318,-0.403,-0.915,-0.049,67,0
319,-0.401,-0.911,-0.044,67,0
320,-0.395,-0.91,-0.038,67,0
321,-0.394,-0.91,-0.038,67,0
322,-0.397,-0.909,-0.037,67,0
323,-0.406,-0.911,-0.035,67,0
324,-0.411,-0.912,-0.034,67,0
325,-0.408,-0.912,-0.038,67,0
326,-0.403,-0.909,-0.042,67,0
327,-0.399,-0.905,-0.041,67,0
328,-0.399,-0.903,-0.039,67,0
329,-0.4,-0.906,-0.042,66,0
330,-0.4,-0.915,-0.045,66,0
331,-0.394,-0.921,-0.044,66,0
332,-0.389,-0.923,-0.041,66,0
333,-0.389,-0.922,-0.044,66,0
334,-0.39,-0.92,-0.046,66,0
335,-0.39,-0.918,-0.044,66,0
336,-0.388,-0.916,-0.043,66,0
337,-0.388,-0.917,-0.045,66,0
338,-0.392,-0.919,-0.047,66,0
339,-0.4,-0.924,-0.055,66,0
340,-0.42,-0.944,-0.068,66,0
341,-0.435,-0.95,-0.063,66,0
342,-0.402,-0.916,-0.036,66,0
343,-0.354,-0.878,-0.008,66,0
344,-0.35,-0.872,-0.01,66,0
345,-0.378,-0.891,-0.032,66,0
346,-0.406,-0.91,-0.046,66,0
347,-0.423,-0.915,-0.045,66,0
348,-0.424,-0.912,-0.039,66,0
349,-0.422,-0.909,-0.046,66,0
350,-0.424,-0.908,-0.056,66,0
351,-0.417,-0.91,-0.055,66,0
352,-0.408,-0.913,-0.052,66,0
353,-0.403,-0.916,-0.051,66,0
354,-0.402,-0.921,-0.052,66,0
355,-0.398,-0.922,-0.055,66,0
356,-0.394,-0.92,-0.06,66,0
357,-0.392,-0.922,-0.059,66,0
358,-0.389,-0.921,-0.055,66,0
359,-0.385,-0.918,-0.056,65,0
360,-0.385,-0.919,-0.059,65,0
361,-0.389,-0.925,-0.061,65,0
362,-0.389,-0.926,-0.057,65,0
363,-0.384,-0.923,-0.051,65,0
364,-0.384,-0.919,-0.052,65,0
365,-0.391,-0.917,-0.058,65,0
366,-0.394,-0.919,-0.061,65,0
367,-0.392,-0.917,-0.057,65,0
368,-0.394,-0.913,-0.052,65,0
369,-0.397,-0.911,-0.053,65,0
370,-0.391,-0.916,-0.055,65,0
371,-0.38,-0.92,-0.05,65,0
372,-0.379,-0.92,-0.046,65,0
373,-0.384,-0.919,-0.05,65,0
374,-0.386,-0.92,-0.052,65,0
375,-0.386,-0.924,-0.052,65,0
376,-0.386,-0.926,-0.053,65,0
377,-0.386,-0.927,-0.055,65,0
378,-0.389,-0.925,-0.055,65,0
379,-0.39,-0.923,-0.054,65,0
380,-0.387,-0.926,-0.054,65,0
381,-0.382,-0.927,-0.056,65,0
382,-0.379,-0.927,-0.055,65,0
383,-0.381,-0.927,-0.051,65,0
384,-0.385,-0.927,-0.051,65,0
385,-0.387,-0.929,-0.054,65,0
386,-0.385,-0.931,-0.056,65,0
387,-0.38,-0.928,-0.055,65,0
388,-0.376,-0.925,-0.055,65,0
389,-0.377,-0.926,-0.057,65,0
390,-0.382,-0.926,-0.057,65,0
391,-0.384,-0.925,-0.057,65,0
392,-0.383,-0.924,-0.059,65,0
393,-0.384,-0.924,-0.059,65,0
394,-0.385,-0.926,-0.057,65,0
395,-0.385,-0.927,-0.059,65,0
396,-0.385,-0.924,-0.06,65,0
397,-0.385,-0.924,-0.06,65,0
398,-0.385,-0.927,-0.06,65,0
399,-0.385,-0.927,-0.062,65,0
400,-0.384,-0.926,-0.063,65,0
401,-0.383,-0.924,-0.062,65,0
402,-0.382,-0.925,-0.062,65,0
403,-0.383,-0.928,-0.063,65,0
404,-0.384,-0.93,-0.065,65,0
405,-0.384,-0.927,-0.066,65,0
406,-0.383,-0.924,-0.065,65,0
407,-0.381,-0.926,-0.065,65,0
408,-0.38,-0.928,-0.064,65,0
409,-0.384,-0.926,-0.065,65,0
410,-0.39,-0.919,-0.067,65,0
411,-0.392,-0.924,-0.064,65,0
412,-0.385,-0.929,-0.059,65,0
413,-0.382,-0.929,-0.057,73,0
414,-0.385,-0.927,-0.058,73,0
415,-0.387,-0.923,-0.059,73,0
416,-0.389,-0.921,-0.058,73,0
417,-0.388,-0.921,-0.059,73,0
418,-0.388,-0.916,-0.062,73,0
419,-0.387,-0.909,-0.06,73,0
420,-0.389,-0.909,-0.056,73,0
421,-0.397,-0.911,-0.055,73,0
422,-0.402,-0.914,-0.055,73,0
423,-0.4,-0.915,-0.056,73,0
424,-0.394,-0.912,-0.057,73,0
425,-0.39,-0.914,-0.055,73,0
426,-0.391,-0.917,-0.053,73,0
427,-0.399,-0.915,-0.052,73,0
428,-0.408,-0.911,-0.053,73,0
429,-0.411,-0.907,-0.054,73,0
430,-0.408,-0.905,-0.053,73,0
431,-0.403,-0.906,-0.053,75,0
432,-0.404,-0.906,-0.056,75,0
433,-0.405,-0.904,-0.057,75,0
434,-0.405,-0.902,-0.056,76,0
435,-0.407,-0.907,-0.053,76,0
436,-0.407,-0.912,-0.053,76,0
437,-0.405,-0.913,-0.057,76,0
438,-0.4,-0.913,-0.058,77,0
439,-0.396,-0.913,-0.057,77,0
440,-0.396,-0.914,-0.054,77,0
441,-0.399,-0.916,-0.052,77,0
442,-0.401,-0.918,-0.054,77,0
443,-0.399,-0.917,-0.054,78,0
444,-0.396,-0.915,-0.054,79,0
445,-0.395,-0.918,-0.054,80,0
446,-0.396,-0.917,-0.055,80,0
447,-0.395,-0.911,-0.055,80,0
448,-0.394,-0.908,-0.054,80,0
449,-0.395,-0.911,-0.056,81,0
450,-0.394,-0.914,-0.054,81,0
451,-0.393,-0.917,-0.051,81,0
452,-0.394,-0.916,-0.052,81,0
453,-0.397,-0.912,-0.054,82,0
454,-0.403,-0.909,-0.052,82,0
455,-0.404,-0.912,-0.051,82,0
456,-0.399,-0.915,-0.053,82,0
457,-0.394,-0.919,-0.051,82,0
458,-0.39,-0.921,-0.049,82,0
459,-0.389,-0.919,-0.053,84,0
460,-0.397,-0.918,-0.054,84,0
461,-0.41,-0.916,-0.051,85,0
462,-0.41,-0.907,-0.05,85,0
463,-0.403,-0.903,-0.051,85,0
464,-0.408,-0.907,-0.052,86,0
465,-0.413,-0.91,-0.053,86,0
466,-0.405,-0.905,-0.055,86,0
467,-0.397,-0.906,-0.053,86,0
468,-0.401,-0.911,-0.052,86,0
469,-0.416,-0.911,-0.056,87,0
470,-0.417,-0.906,-0.057,87,0
471,-0.404,-0.904,-0.055,87,0
472,-0.4,-0.908,-0.057,87,0
473,-0.399,-0.916,-0.056,88,0
474,-0.397,-0.92,-0.055,88,0
475,-0.394,-0.919,-0.057,89,0
476,-0.391,-0.918,-0.056,89,0
477,-0.39,-0.919,-0.054,89,0
478,-0.394,-0.919,-0.059,89,0
479,-0.395,-0.916,-0.063,90,0
480,-0.393,-0.917,-0.06,90,0
481,-0.392,-0.918,-0.054,90,0
482,-0.391,-0.917,-0.057,90,0
483,-0.39,-0.919,-0.061,91,0
484,-0.389,-0.921,-0.061,91,0
485,-0.391,-0.918,-0.06,91,0
486,-0.393,-0.915,-0.059,92,0
487,-0.393,-0.916,-0.058,92,0
488,-0.392,-0.92,-0.058,92,0
489,-0.391,-0.919,-0.061,93,0
490,-0.389,-0.915,-0.064,93,0
491,-0.389,-0.916,-0.062,93,0
492,-0.398,-0.914,-0.058,94,0
493,-0.412,-0.907,-0.058,94,0
494,-0.411,-0.904,-0.06,94,0
495,-0.401,-0.911,-0.06,94,0
496,-0.394,-0.919,-0.058,95,0
497,-0.392,-0.92,-0.058,95,0
498,-0.391,-0.917,-0.06,95,0
499,-0.389,-0.914,-0.062,95,0
500,-0.387,-0.919,-0.061,96,0
501,-0.389,-0.925,-0.059,96,0
502,-0.391,-0.918,-0.06,96,0
503,-0.39,-0.909,-0.063,97,0
504,-0.387,-0.911,-0.06,97,0
505,-0.387,-0.918,-0.056,97,0
506,-0.387,-0.921,-0.057,98,0
507,-0.384,-0.921,-0.063,98,0
508,-0.381,-0.925,-0.063,98,0
509,-0.382,-0.929,-0.061,98,0
510,-0.386,-0.929,-0.062,99,0
511,-0.386,-0.924,-0.064,99,0
512,-0.384,-0.923,-0.063,99,0
513,-0.382,-0.922,-0.06,99,0
514,-0.38,-0.922,-0.06,100,0
515,-0.381,-0.929,-0.065,100,0
516,-0.384,-0.932,-0.068,100,0
517,-0.386,-0.928,-0.07,101,0
518,-0.386,-0.928,-0.07,101,0
519,-0.386,-0.929,-0.07,101,0
520,-0.385,-0.922,-0.072,101,0
521,-0.381,-0.914,-0.073,102,0
522,-0.38,-0.918,-0.071,102,0
523,-0.385,-0.927,-0.071,102,0
524,-0.388,-0.929,-0.072,102,0
525,-0.385,-0.924,-0.071,102,0
526,-0.381,-0.92,-0.07,103,0
527,-0.382,-0.923,-0.068,103,0
528,-0.387,-0.926,-0.066,103,0
529,-0.388,-0.919,-0.069,103,0
530,-0.388,-0.912,-0.071,103,0
531,-0.393,-0.913,-0.067,103,0
532,-0.4,-0.917,-0.06,103,0
533,-0.405,-0.913,-0.067,103,0
534,-0.412,-0.908,-0.085,104,0
535,-0.408,-0.916,-0.09,104,0
536,-0.388,-0.929,-0.079,104,0
537,-0.383,-0.936,-0.057,104,0
538,-0.398,-0.928,-0.062,104,0
539,-0.401,-0.933,-0.071,104,0
540,-0.363,-0.929,-0.053,104,0
541,-0.335,-0.906,-0.034,104,0
542,-0.349,-0.902,-0.032,104,0
543,-0.388,-0.908,-0.042,104,0
544,-0.422,-0.908,-0.05,104,0
545,-0.419,-0.908,-0.05,104,0
546,-0.402,-0.91,-0.033,104,0
547,-0.398,-0.907,-0.03,104,0
548,-0.414,-0.904,-0.045,104,0
549,-0.423,-0.909,-0.052,104,0
550,-0.413,-0.914,-0.052,104,0
551,-0.401,-0.91,-0.051,104,0
552,-0.378,-0.905,-0.049,104,0
553,-0.354,-0.895,-0.065,105,0
554,-0.36,-0.91,-0.065,105,0
555,-0.377,-0.939,-0.064,105,0
556,-0.385,-0.934,-0.09,105,0
557,-0.385,-0.929,-0.091,105,0
558,-0.367,-0.934,-0.074,105,0
559,-0.358,-0.93,-0.076,105,0
560,-0.374,-0.92,-0.087,105,0
561,-0.391,-0.911,-0.085,105,0
562,-0.391,-0.901,-0.083,105,0
563,-0.366,-0.916,-0.096,105,0
564,-0.322,-0.949,-0.087,105,0
565,-0.303,-0.957,-0.076,104,0
566,-0.337,-0.947,-0.077,104,0
567,-0.378,-0.941,-0.076,104,0
568,-0.386,-0.926,-0.089,104,0
569,-0.378,-0.908,-0.097,104,0
570,-0.378,-0.904,-0.091,104,0
571,-0.376,-0.912,-0.089,104,0
572,-0.372,-0.923,-0.095,104,0
573,-0.368,-0.929,-0.104,104,0
574,-0.356,-0.932,-0.107,104,0
575,-0.337,-0.939,-0.1,104,0
576,-0.322,-0.942,-0.097,104,0
577,-0.312,-0.944,-0.104,104,0
578,-0.308,-0.943,-0.099,104,0
579,-0.303,-0.94,-0.09,104,0
580,-0.301,-0.941,-0.093,104,0
581,-0.315,-0.949,-0.089,104,0
582,-0.331,-0.954,-0.081,104,0
583,-0.333,-0.948,-0.09,104,0
584,-0.331,-0.939,-0.106,104,0
585,-0.327,-0.939,-0.114,104,0
586,-0.316,-0.94,-0.117,104,0
587,-0.311,-0.938,-0.12,104,0
588,-0.314,-0.941,-0.114,104,0
589,-0.307,-0.94,-0.108,104,0
590,-0.296,-0.933,-0.109,104,0
591,-0.302,-0.933,-0.109,104,0
592,-0.325,-0.942,-0.111,104,0
593,-0.343,-0.946,-0.118,104,0
594,-0.339,-0.944,-0.121,104,0
595,-0.326,-0.935,-0.113,104,0
596,-0.323,-0.925,-0.11,104,0
597,-0.33,-0.928,-0.113,104,0
598,-0.338,-0.935,-0.117,104,0
599,-0.344,-0.937,-0.123,104,0
600,-0.338,-0.94,-0.124,104,0
601,-0.324,-0.941,-0.122,104,0
602,-0.312,-0.939,-0.122,103,0
603,-0.305,-0.936,-0.126,103,0
604,-0.304,-0.942,-0.131,102,0
605,-0.303,-0.95,-0.127,102,0
606,-0.295,-0.947,-0.123,102,0
607,-0.285,-0.946,-0.126,102,0
608,-0.275,-0.952,-0.129,101,0
609,-0.265,-0.953,-0.133,101,0
610,-0.26,-0.95,-0.138,101,0
611,-0.252,-0.953,-0.137,101,0
612,-0.245,-0.959,-0.133,100,0
613,-0.246,-0.964,-0.127,100,0
614,-0.252,-0.967,-0.125,100,0
615,-0.262,-0.973,-0.126,100,0
616,-0.268,-0.975,-0.125,99,0
617,-0.262,-0.966,-0.119,99,0
618,-0.263,-0.958,-0.118,98,0
619,-0.275,-0.965,-0.123,98,0
620,-0.283,-0.968,-0.126,98,0
621,-0.273,-0.953,-0.124,98,0
622,-0.263,-0.936,-0.116,97,0
623,-0.272,-0.927,-0.125,97,0
624,-0.296,-0.932,-0.143,97,0
625,-0.317,-0.928,-0.14,97,0
626,-0.323,-0.92,-0.119,96,0
627,-0.32,-0.929,-0.096,96,0
628,-0.328,-0.936,-0.089,96,0
629,-0.342,-0.933,-0.098,96,0
630,-0.346,-0.935,-0.106,95,0
631,-0.341,-0.938,-0.111,95,0
632,-0.325,-0.929,-0.115,95,0
633,-0.311,-0.923,-0.116,95,0
634,-0.316,-0.939,-0.11,95,0
635,-0.338,-0.955,-0.099,95,0
636,-0.349,-0.957,-0.1,95,0
637,-0.343,-0.957,-0.114,95,0
638,-0.333,-0.947,-0.129,95,0
639,-0.326,-0.927,-0.123,95,0
640,-0.314,-0.926,-0.103,95,0
641,-0.289,-0.937,-0.091,94,0
642,-0.273,-0.945,-0.09,94,0
643,-0.291,-0.947,-0.095,94,0
644,-0.337,-0.943,-0.099,94,0
645,-0.367,-0.942,-0.1,94,0
646,-0.369,-0.929,-0.103,94,0
647,-0.366,-0.906,-0.104,94,0
648,-0.359,-0.893,-0.101,94,0
649,-0.346,-0.901,-0.106,94,0
650,-0.349,-0.926,-0.113,94,0
651,-0.361,-0.944,-0.104,95,0
652,-0.358,-0.942,-0.084,95,0
653,-0.347,-0.938,-0.083,95,0
654,-0.352,-0.939,-0.095,95,0
655,-0.368,-0.941,-0.095,95,0
656,-0.366,-0.942,-0.091,95,0
657,-0.341,-0.947,-0.099,95,0
658,-0.315,-0.949,-0.107,95,0
659,-0.305,-0.942,-0.105,95,0
660,-0.302,-0.932,-0.1,95,0
661,-0.31,-0.932,-0.099,97,0
662,-0.319,-0.943,-0.098,97,0
663,-0.323,-0.946,-0.097,97,0
664,-0.334,-0.946,-0.102,97,0
665,-0.348,-0.951,-0.106,97,0
666,-0.339,-0.937,-0.11,97,0
667,-0.31,-0.913,-0.118,97,0
668,-0.297,-0.907,-0.119,97,0
669,-0.301,-0.92,-0.113,97,0
670,-0.309,-0.942,-0.111,97,0
671,-0.333,-0.971,-0.108,98,0
672,-0.36,-0.988,-0.094,98,0
673,-0.373,-0.961,-0.081,98,0
674,-0.361,-0.902,-0.084,98,0
675,-0.32,-0.867,-0.098,98,0
676,-0.295,-0.884,-0.104,98,0
677,-0.306,-0.925,-0.103,98,0
678,-0.337,-0.954,-0.099,98,0
679,-0.366,-0.957,-0.099,98,0
680,-0.372,-0.936,-0.106,98,0
681,-0.359,-0.922,-0.11,100,0
682,-0.344,-0.93,-0.107,100,0
683,-0.341,-0.942,-0.108,100,0
684,-0.351,-0.943,-0.114,100,0
685,-0.347,-0.94,-0.114,100,0
686,-0.326,-0.939,-0.11,100,0
687,-0.3,-0.934,-0.11,100,0
688,-0.283,-0.932,-0.114,100,0
689,-0.293,-0.94,-0.114,100,0
690,-0.314,-0.947,-0.111,100,0
691,-0.33,-0.945,-0.112,102,0
692,-0.346,-0.936,-0.117,102,0
693,-0.348,-0.932,-0.118,102,0
694,-0.327,-0.934,-0.114,102,0
695,-0.302,-0.942,-0.11,102,0
696,-0.288,-0.952,-0.109,102,0
697,-0.295,-0.958,-0.104,102,0
698,-0.314,-0.961,-0.099,102,0
699,-0.321,-0.955,-0.104,102,0
700,-0.312,-0.945,-0.109,102,0
701,-0.296,-0.937,-0.113,103,0
702,-0.286,-0.937,-0.111,103,0
703,-0.29,-0.941,-0.103,103,0
704,-0.301,-0.945,-0.097,103,0
705,-0.309,-0.945,-0.098,103,0
706,-0.312,-0.941,-0.102,103,0
707,-0.314,-0.937,-0.102,103,0
708,-0.312,-0.937,-0.1,103,0
709,-0.304,-0.939,-0.1,103,0
710,-0.297,-0.94,-0.104,103,0
711,-0.297,-0.941,-0.104,105,0
712,-0.305,-0.944,-0.093,105,0
713,-0.322,-0.949,-0.085,105,0
714,-0.334,-0.949,-0.09,105,0
715,-0.331,-0.945,-0.096,105,0
716,-0.321,-0.947,-0.093,105,0
717,-0.312,-0.949,-0.09,105,0
718,-0.305,-0.947,-0.094,105,0
719,-0.296,-0.944,-0.1,105,0
720,-0.294,-0.945,-0.099,105,0
721,-0.297,-0.945,-0.095,106,0
722,-0.288,-0.947,-0.099,106,0
723,-0.277,-0.95,-0.103,106,0
724,-0.27,-0.948,-0.102,106,0
725,-0.277,-0.944,-0.093,106,0
726,-0.305,-0.941,-0.084,106,0
727,-0.341,-0.943,-0.084,106,0
728,-0.354,-0.947,-0.088,106,0
729,-0.339,-0.952,-0.088,106,0
730,-0.312,-0.954,-0.083,106,0
731,-0.292,-0.947,-0.082,108,0
732,-0.29,-0.941,-0.084,108,0
733,-0.303,-0.937,-0.085,108,0
734,-0.324,-0.945,-0.084,108,0
735,-0.344,-0.956,-0.086,108,0
736,-0.343,-0.947,-0.091,108,0
737,-0.328,-0.935,-0.088,108,0
738,-0.315,-0.928,-0.082,108,0
739,-0.303,-0.924,-0.081,108,0
740,-0.3,-0.935,-0.085,108,0
741,-0.311,-0.953,-0.093,110,0
742,-0.329,-0.952,-0.091,110,0
743,-0.337,-0.94,-0.087,110,0
744,-0.321,-0.939,-0.09,110,0
745,-0.304,-0.948,-0.094,110,0
746,-0.308,-0.951,-0.093,110,0
747,-0.315,-0.951,-0.086,110,0
748,-0.309,-0.954,-0.083,110,0
749,-0.291,-0.944,-0.089,110,0
750,-0.279,-0.932,-0.093,110,0
751,-0.283,-0.929,-0.097,111,0
752,-0.294,-0.933,-0.098,111,0
753,-0.299,-0.944,-0.095,111,0
754,-0.303,-0.952,-0.094,111,0
755,-0.306,-0.953,-0.092,111,0
756,-0.307,-0.951,-0.088,111,0
757,-0.3,-0.952,-0.093,111,0
758,-0.288,-0.954,-0.103,111,0
759,-0.278,-0.95,-0.11,111,0
760,-0.273,-0.949,-0.111,111,0
761,-0.275,-0.958,-0.108,113,0
762,-0.274,-0.967,-0.104,113,0
763,-0.278,-0.974,-0.082,113,0
764,-0.29,-0.97,-0.06,113,0
765,-0.295,-0.954,-0.075,113,0
766,-0.295,-0.951,-0.101,113,0
767,-0.302,-0.963,-0.109,113,0
768,-0.303,-0.965,-0.105,113,0
769,-0.272,-0.957,-0.108,113,0
770,-0.234,-0.947,-0.13,113,0
771,-0.211,-0.927,-0.143,114,0
772,-0.224,-0.926,-0.114,114,0
773,-0.263,-0.967,-0.073,114,0
774,-0.285,-0.994,-0.071,114,0
775,-0.282,-0.979,-0.097,114,0
776,-0.267,-0.947,-0.109,114,0
777,-0.25,-0.938,-0.108,114,0
778,-0.241,-0.955,-0.104,114,0
779,-0.242,-0.965,-0.103,114,0
780,-0.248,-0.96,-0.102,114,0
781,-0.254,-0.952,-0.101,115,0
782,-0.26,-0.947,-0.101,115,0
783,-0.267,-0.948,-0.102,115,0
784,-0.275,-0.958,-0.101,115,0
785,-0.283,-0.966,-0.103,115,0
786,-0.28,-0.966,-0.103,115,0
787,-0.269,-0.963,-0.099,115,0
788,-0.266,-0.961,-0.095,115,0
789,-0.275,-0.955,-0.098,115,0
790,-0.279,-0.954,-0.103,115,0
791,-0.27,-0.956,-0.104,116,0
792,-0.254,-0.956,-0.104,116,0
793,-0.245,-0.96,-0.104,116,0
794,-0.253,-0.965,-0.103,116,0
795,-0.274,-0.963,-0.104,116,0
796,-0.283,-0.958,-0.106,116,0
797,-0.271,-0.955,-0.107,116,0
798,-0.255,-0.96,-0.106,116,0
799,-0.248,-0.966,-0.105,116,0
800,-0.247,-0.963,-0.106,116,0
801,-0.251,-0.956,-0.107,117,0
802,-0.258,-0.955,-0.109,117,0
803,-0.262,-0.959,-0.109,117,0
804,-0.261,-0.964,-0.107,117,0
805,-0.257,-0.963,-0.106,117,0
806,-0.256,-0.957,-0.105,117,0
807,-0.26,-0.954,-0.106,117,0
808,-0.267,-0.954,-0.105,117,0
809,-0.272,-0.959,-0.104,117,0
810,-0.273,-0.962,-0.101,117,0
811,-0.271,-0.959,-0.098,117,0
812,-0.268,-0.956,-0.097,117,0
813,-0.267,-0.957,-0.101,117,0
814,-0.266,-0.958,-0.101,117,0
815,-0.269,-0.958,-0.098,117,0
816,-0.278,-0.955,-0.097,117,0
817,-0.284,-0.951,-0.1,117,0
818,-0.277,-0.951,-0.104,117,0
819,-0.266,-0.956,-0.102,117,0
820,-0.261,-0.959,-0.099,117,0
821,-0.261,-0.958,-0.1,117,0
822,-0.265,-0.952,-0.102,117,0
823,-0.279,-0.947,-0.102,117,0
824,-0.296,-0.945,-0.105,117,0
825,-0.303,-0.946,-0.111,117,0
826,-0.299,-0.951,-0.108,117,0
827,-0.281,-0.958,-0.1,117,0
828,-0.262,-0.96,-0.099,117,0
829,-0.253,-0.958,-0.103,117,0
830,-0.254,-0.958,-0.104,117,0
831,-0.261,-0.96,-0.106,117,0
832,-0.261,-0.962,-0.104,117,0
833,-0.256,-0.963,-0.099,117,0
834,-0.255,-0.962,-0.1,117,0
835,-0.259,-0.96,-0.105,117,0
836,-0.265,-0.959,-0.108,117,0
837,-0.267,-0.959,-0.109,117,0
838,-0.26,-0.959,-0.109,117,0
839,-0.253,-0.96,-0.108,117,0
840,-0.251,-0.962,-0.108,117,0
841,-0.251,-0.96,-0.107,117,0
842,-0.252,-0.963,-0.104,117,0
843,-0.254,-0.966,-0.104,117,0
844,-0.251,-0.962,-0.103,117,0
845,-0.249,-0.96,-0.103,117,0
846,-0.249,-0.961,-0.104,117,0
847,-0.251,-0.961,-0.103,117,0
848,-0.255,-0.96,-0.099,117,0
849,-0.26,-0.957,-0.099,117,0
850,-0.262,-0.956,-0.1,117,0
851,-0.263,-0.958,-0.101,117,0
852,-0.26,-0.961,-0.101,117,0
853,-0.257,-0.96,-0.099,117,0
854,-0.256,-0.961,-0.097,117,0
855,-0.255,-0.966,-0.097,117,0
856,-0.252,-0.965,-0.097,117,0
857,-0.249,-0.957,-0.097,117,0
858,-0.253,-0.958,-0.096,117,0
859,-0.266,-0.96,-0.096,117,0
860,-0.275,-0.96,-0.096,117,0
861,-0.273,-0.959,-0.096,117,0
862,-0.265,-0.959,-0.096,117,0
863,-0.259,-0.959,-0.095,117,0
864,-0.254,-0.958,-0.093,117,0
865,-0.251,-0.957,-0.092,117,0
866,-0.254,-0.958,-0.092,117,0
867,-0.257,-0.962,-0.091,117,0
868,-0.256,-0.963,-0.09,117,0
869,-0.254,-0.963,-0.089,117,0
870,-0.254,-0.96,-0.089,117,0
871,-0.256,-0.957,-0.088,117,0
872,-0.258,-0.956,-0.088,117,0
873,-0.26,-0.958,-0.091,117,0
874,-0.263,-0.961,-0.09,117,0
875,-0.263,-0.958,-0.089,117,0
876,-0.262,-0.952,-0.089,117,0
877,-0.262,-0.951,-0.09,117,0
878,-0.262,-0.955,-0.09,117,0
879,-0.263,-0.963,-0.088,117,0
880,-0.266,-0.967,-0.089,117,0
881,-0.265,-0.963,-0.089,117,0
882,-0.261,-0.954,-0.086,117,0
883,-0.263,-0.952,-0.087,117,0
884,-0.271,-0.955,-0.089,117,0
885,-0.273,-0.958,-0.09,117,0
886,-0.267,-0.957,-0.091,117,0
887,-0.26,-0.955,-0.093,117,0
888,-0.257,-0.954,-0.094,117,0
889,-0.26,-0.956,-0.092,117,0
890,-0.266,-0.959,-0.091,117,0
891,-0.27,-0.957,-0.09,117,0
892,-0.27,-0.956,-0.09,117,0
893,-0.268,-0.96,-0.09,117,0
894,-0.267,-0.961,-0.089,117,0
895,-0.264,-0.96,-0.087,117,0
896,-0.26,-0.96,-0.087,117,0
897,-0.259,-0.959,-0.086,117,0
898,-0.261,-0.959,-0.086,117,0
899,-0.266,-0.958,-0.09,117,0
900,-0.267,-0.958,-0.092,117,0
901,-0.264,-0.957,-0.09,117,0
902,-0.262,-0.957,-0.087,117,0
903,-0.259,-0.957,-0.089,117,0
904,-0.261,-0.957,-0.093,117,0
905,-0.265,-0.958,-0.096,117,0
906,-0.268,-0.957,-0.097,117,0
907,-0.268,-0.954,-0.097,117,0
908,-0.268,-0.952,-0.097,117,0
909,-0.275,-0.949,-0.101,117,0
910,-0.283,-0.947,-0.107,117,0
911,-0.284,-0.947,-0.112,117,0
912,-0.278,-0.949,-0.115,117,0
913,-0.271,-0.953,-0.117,117,0
914,-0.271,-0.954,-0.119,117,0
915,-0.272,-0.954,-0.122,117,0
916,-0.274,-0.952,-0.128,117,0
917,-0.28,-0.95,-0.133,117,0
918,-0.285,-0.951,-0.135,117,0
919,-0.29,-0.95,-0.138,117,0
920,-0.296,-0.946,-0.145,117,0
921,-0.303,-0.942,-0.149,117,0
922,-0.315,-0.939,-0.151,117,0
923,-0.316,-0.946,-0.154,117,0
924,-0.297,-0.957,-0.147,117,0
925,-0.274,-0.951,-0.135,117,0
926,-0.274,-0.942,-0.127,117,0
927,-0.309,-0.951,-0.123,117,0
928,-0.334,-0.966,-0.126,117,0
929,-0.321,-0.978,-0.122,117,0
930,-0.291,-0.988,-0.108,117,0
931,-0.268,-0.987,-0.106,117,0
932,-0.264,-0.961,-0.114,117,0
933,-0.265,-0.931,-0.116,117,0
934,-0.275,-0.934,-0.1,117,0
935,-0.297,-0.957,-0.074,117,0
936,-0.309,-0.965,-0.065,117,0
937,-0.295,-0.947,-0.074,117,0
938,-0.269,-0.922,-0.08,117,0
939,-0.248,-0.921,-0.064,117,0
940,-0.241,-0.939,-0.039,117,0
941,-0.262,-0.964,-0.021,115,0
942,-0.296,-0.987,-0.016,115,0
943,-0.299,-0.978,-0.025,115,0
944,-0.264,-0.94,-0.038,115,0
945,-0.223,-0.92,-0.033,115,0
946,-0.205,-0.939,-0.024,115,0
947,-0.212,-0.974,-0.015,115,0
948,-0.225,-0.979,0.007,115,0
949,-0.238,-0.951,0.015,115,0
950,-0.248,-0.94,0.001,115,0
951,-0.255,-0.959,-0.004,114,0
952,-0.255,-0.984,0.004,114,0
953,-0.24,-0.996,0.014,114,0
954,-0.211,-0.989,0.015,114,0
955,-0.185,-0.971,0.02,114,0
956,-0.182,-0.959,0.031,114,0
957,-0.208,-0.961,0.031,114,0
958,-0.222,-0.969,0.027,114,0
959,-0.201,-0.975,0.035,114,0
960,-0.17,-0.98,0.041,114,0
961,-0.149,-0.981,0.035,112,0
962,-0.151,-0.983,0.034,112,0
963,-0.148,-0.981,0.031,112,0
964,-0.133,-0.975,0.025,112,0
965,-0.115,-0.975,0.025,112,0
966,-0.09,-0.977,0.027,112,0
967,-0.078,-0.977,0.027,112,0
968,-0.08,-0.977,0.023,112,0
969,-0.085,-0.98,0.021,112,0
970,-0.086,-0.982,0.022,112,0
971,-0.079,-0.98,0.022,110,0
972,-0.074,-0.972,0.019,110,0
973,-0.077,-0.969,0.017,110,0
974,-0.087,-0.979,0.018,110,0
975,-0.097,-0.975,0.016,110,0
976,-0.106,-0.961,0.005,110,0
977,-0.116,-0.967,-0.005,110,0
978,-0.124,-0.991,-0.006,110,0
979,-0.127,-1.003,-0.004,110,0
980,-0.125,-1.001,-0.006,110,0
981,-0.125,-0.997,-0.009,109,0
982,-0.133,-0.991,-0.014,109,0
983,-0.14,-0.988,-0.022,109,0
984,-0.139,-0.986,-0.032,109,0
985,-0.136,-0.983,-0.039,109,0
986,-0.14,-0.982,-0.041,109,0
987,-0.153,-0.982,-0.045,109,0
988,-0.174,-0.983,-0.049,109,0
989,-0.188,-0.982,-0.056,109,0
990,-0.197,-0.981,-0.064,109,0
991,-0.202,-0.982,-0.071,110,0
992,-0.194,-0.986,-0.078,110,0
993,-0.176,-0.987,-0.079,110,0
994,-0.158,-0.983,-0.079,110,0
995,-0.153,-0.979,-0.084,110,0
996,-0.161,-0.979,-0.091,110,0
997,-0.179,-0.981,-0.091,110,0
998,-0.195,-0.982,-0.09,110,0
999,-0.191,-0.983,-0.096,110,0
1000,-0.175,-0.98,-0.1,110,0
1001,-0.169,-0.97,-0.101,111,0
1002,-0.18,-0.965,-0.103,111,0
1003,-0.195,-0.971,-0.107,111,0
1004,-0.2,-0.976,-0.107,111,0
1005,-0.196,-0.979,-0.103,111,0
1006,-0.194,-0.983,-0.1,111,0
1007,-0.196,-0.982,-0.1,111,0
1008,-0.198,-0.979,-0.102,111,0
1009,-0.2,-0.977,-0.103,111,0
1010,-0.202,-0.979,-0.104,111,0
1011,-0.202,-0.98,-0.108,112,0
1012,-0.202,-0.981,-0.112,112,0
1013,-0.206,-0.979,-0.11,112,0
1014,-0.211,-0.975,-0.107,112,0
1015,-0.215,-0.973,-0.105,112,0
1016,-0.218,-0.973,-0.103,112,0
1017,-0.224,-0.975,-0.1,112,0
1018,-0.224,-0.972,-0.105,112,0
1019,-0.214,-0.969,-0.111,112,0
1020,-0.207,-0.974,-0.107,112,0
1021,-0.207,-0.977,-0.109,110,0
1022,-0.204,-0.97,-0.117,110,0
1023,-0.194,-0.963,-0.122,110,0
1024,-0.194,-0.968,-0.12,110,0
1025,-0.202,-0.977,-0.12,110,0
1026,-0.203,-0.98,-0.123,110,0
1027,-0.197,-0.978,-0.123,110,0
1028,-0.19,-0.974,-0.121,110,0
1029,-0.192,-0.972,-0.119,110,0
1030,-0.208,-0.972,-0.117,110,0
1031,-0.223,-0.973,-0.116,111,0
1032,-0.23,-0.975,-0.117,111,0
1033,-0.232,-0.975,-0.12,111,0
1034,-0.221,-0.974,-0.122,111,0
1035,-0.21,-0.969,-0.127,111,0
1036,-0.215,-0.967,-0.125,111,0
1037,-0.229,-0.968,-0.114,111,0
1038,-0.238,-0.964,-0.108,111,0
1039,-0.242,-0.959,-0.11,111,0
1040,-0.245,-0.964,-0.112,111,0
1041,-0.246,-0.969,-0.111,111,0
1042,-0.244,-0.968,-0.11,111,0
1043,-0.241,-0.966,-0.113,111,0
1044,-0.24,-0.964,-0.118,111,0
1045,-0.241,-0.968,-0.122,111,0
1046,-0.239,-0.968,-0.124,111,0
1047,-0.226,-0.963,-0.124,111,0
1048,-0.211,-0.963,-0.125,111,0
1049,-0.213,-0.968,-0.124,111,0
1050,-0.228,-0.967,-0.122,111,0
1051,-0.236,-0.963,-0.119,112,0
1052,-0.239,-0.968,-0.12,112,0
1053,-0.235,-0.97,-0.122,112,0
1054,-0.219,-0.968,-0.122,112,0
1055,-0.21,-0.973,-0.116,112,0
1056,-0.216,-0.971,-0.112,112,0
1057,-0.227,-0.966,-0.114,112,0
1058,-0.236,-0.969,-0.122,112,0
1059,-0.232,-0.971,-0.129,112,0
1060,-0.217,-0.973,-0.124,112,0
1061,-0.214,-0.976,-0.111,112,0
1062,-0.225,-0.974,-0.108,112,0
1063,-0.231,-0.959,-0.116,112,0
1064,-0.233,-0.95,-0.116,112,0
1065,-0.238,-0.955,-0.104,112,0
1066,-0.244,-0.961,-0.101,112,0
1067,-0.246,-0.962,-0.104,112,0
1068,-0.246,-0.961,-0.102,112,0
1069,-0.247,-0.958,-0.101,112,0
1070,-0.246,-0.957,-0.106,112,0
1071,-0.247,-0.963,-0.106,113,0
1072,-0.253,-0.971,-0.103,113,0
1073,-0.255,-0.975,-0.1,113,0
1074,-0.244,-0.977,-0.095,113,0
1075,-0.216,-0.976,-0.097,113,0
1076,-0.179,-0.963,-0.106,113,0
1077,-0.165,-0.95,-0.112,113,0
1078,-0.198,-0.949,-0.105,113,0
1079,-0.26,-0.961,-0.094,113,0
1080,-0.303,-0.974,-0.097,113,0
1081,-0.311,-0.975,-0.111,111,0
1082,-0.289,-0.972,-0.118,111,0
1083,-0.247,-0.974,-0.112,111,0
1084,-0.197,-0.977,-0.098,111,0
1085,-0.162,-0.983,-0.092,111,0
1086,-0.159,-0.979,-0.101,111,0
1087,-0.18,-0.964,-0.112,111,0
1088,-0.206,-0.957,-0.11,111,0
1089,-0.223,-0.961,-0.097,111,0
1090,-0.231,-0.969,-0.087,111,0
1091,-0.238,-0.97,-0.082,112,0
1092,-0.243,-0.964,-0.078,112,0
1093,-0.24,-0.959,-0.078,112,0
1094,-0.233,-0.965,-0.08,112,0
1095,-0.231,-0.971,-0.079,112,0
1096,-0.234,-0.967,-0.08,112,0
1097,-0.239,-0.964,-0.078,112,0
1098,-0.246,-0.965,-0.072,112,0
1099,-0.252,-0.965,-0.074,112,0
1100,-0.254,-0.963,-0.082,112,0
1101,-0.254,-0.962,-0.082,111,0
1102,-0.252,-0.963,-0.076,111,0
1103,-0.251,-0.965,-0.073,111,0
1104,-0.248,-0.964,-0.08,111,0
1105,-0.242,-0.962,-0.089,111,0
1106,-0.238,-0.96,-0.089,111,0
1107,-0.241,-0.96,-0.083,111,0
1108,-0.255,-0.96,-0.08,111,0
1109,-0.275,-0.955,-0.083,111,0
1110,-0.284,-0.951,-0.089,111,0
1111,-0.276,-0.951,-0.092,109,0
1112,-0.262,-0.957,-0.091,109,0
1113,-0.254,-0.962,-0.09,109,0
1114,-0.251,-0.965,-0.092,109,0
1115,-0.25,-0.967,-0.093,109,0
1116,-0.248,-0.967,-0.093,109,0
1117,-0.244,-0.968,-0.09,109,0
1118,-0.241,-0.967,-0.088,109,0
1119,-0.232,-0.958,-0.095,109,0
1120,-0.219,-0.958,-0.107,109,0
1121,-0.209,-0.97,-0.114,108,0
1122,-0.206,-0.982,-0.112,108,0
1123,-0.21,-0.981,-0.104,108,0
1124,-0.214,-0.974,-0.101,108,0
1125,-0.216,-0.972,-0.104,108,0
1126,-0.218,-0.971,-0.107,108,0
1127,-0.223,-0.968,-0.109,108,0
1128,-0.229,-0.972,-0.11,108,0
1129,-0.23,-0.977,-0.106,108,0
1130,-0.223,-0.978,-0.106,108,0
1131,-0.213,-0.978,-0.108,106,0
1132,-0.209,-0.977,-0.107,106,0
1133,-0.214,-0.972,-0.105,106,0
1134,-0.22,-0.969,-0.107,106,0
1135,-0.223,-0.971,-0.11,106,0
1136,-0.221,-0.973,-0.11,106,0
1137,-0.215,-0.972,-0.11,106,0
1138,-0.214,-0.969,-0.108,106,0
1139,-0.218,-0.969,-0.109,106,0
1140,-0.219,-0.971,-0.11,106,0
1141,-0.216,-0.972,-0.107,104,0
1142,-0.212,-0.971,-0.107,104,0
1143,-0.21,-0.972,-0.108,104,0
1144,-0.211,-0.974,-0.109,104,0
1145,-0.215,-0.971,-0.11,104,0
1146,-0.217,-0.965,-0.11,104,0
1147,-0.215,-0.966,-0.109,104,0
1148,-0.213,-0.971,-0.109,104,0
1149,-0.213,-0.975,-0.108,104,0
1150,-0.211,-0.975,-0.107,104,0
1151,-0.207,-0.975,-0.108,103,0
1152,-0.202,-0.977,-0.108,103,0
1153,-0.201,-0.979,-0.108,103,0
1154,-0.204,-0.977,-0.108,103,0
1155,-0.206,-0.974,-0.109,103,0
1156,-0.207,-0.973,-0.11,103,0
1157,-0.204,-0.977,-0.105,103,0
1158,-0.2,-0.981,-0.096,103,0
1159,-0.201,-0.977,-0.099,103,0
1160,-0.204,-0.965,-0.113,103,0
1161,-0.213,-0.961,-0.115,104,0
1162,-0.225,-0.968,-0.101,104,0
1163,-0.222,-0.973,-0.093,104,0
1164,-0.215,-0.972,-0.102,104,0
1165,-0.215,-0.972,-0.107,104,0
1166,-0.213,-0.974,-0.103,104,0
1167,-0.21,-0.976,-0.097,104,0
1168,-0.215,-0.976,-0.1,104,0
1169,-0.218,-0.975,-0.104,104,0
1170,-0.214,-0.975,-0.103,104,0
1171,-0.208,-0.976,-0.103,106,0
1172,-0.205,-0.976,-0.104,106,0
1173,-0.207,-0.975,-0.106,106,0
1174,-0.207,-0.975,-0.109,106,0
1175,-0.205,-0.975,-0.108,106,0
1176,-0.203,-0.976,-0.104,106,0
1177,-0.204,-0.977,-0.099,106,0
1178,-0.212,-0.975,-0.102,106,0
1179,-0.22,-0.969,-0.109,106,0
1180,-0.214,-0.972,-0.105,106,0
1181,-0.204,-0.976,-0.103,108,0
1182,-0.203,-0.974,-0.109,108,0
1183,-0.204,-0.975,-0.111,108,0
1184,-0.204,-0.978,-0.108,108,0
1185,-0.204,-0.976,-0.107,108,0
1186,-0.202,-0.974,-0.109,108,0
1187,-0.201,-0.973,-0.11,108,0
1188,-0.205,-0.974,-0.111,108,0
1189,-0.209,-0.975,-0.109,108,0
1190,-0.209,-0.977,-0.107,108,0
1191,-0.209,-0.976,-0.106,109,0
1192,-0.212,-0.973,-0.106,109,0
1193,-0.216,-0.973,-0.107,109,0
1194,-0.217,-0.975,-0.107,109,0
1195,-0.214,-0.976,-0.106,109,0
1196,-0.212,-0.975,-0.106,109,0
1197,-0.213,-0.971,-0.106,109,0
1198,-0.215,-0.971,-0.106,109,0
1199,-0.218,-0.971,-0.108,109,0
1200,-0.218,-0.968,-0.109,109,0
1201,-0.214,-0.97,-0.111,111,0
1202,-0.21,-0.976,-0.113,111,0
1203,-0.208,-0.981,-0.111,111,0
1204,-0.204,-0.982,-0.106,111,0
1205,-0.199,-0.98,-0.102,111,0
1206,-0.192,-0.975,-0.104,111,0
1207,-0.182,-0.971,-0.109,111,0
1208,-0.171,-0.969,-0.111,111,0
1209,-0.175,-0.969,-0.11,111,0
1210,-0.197,-0.97,-0.105,111,0
1211,-0.22,-0.971,-0.099,112,0
1212,-0.236,-0.972,-0.094,112,0
1213,-0.246,-0.97,-0.091,112,0
1214,-0.249,-0.967,-0.091,112,0
1215,-0.246,-0.963,-0.093,112,0
1216,-0.243,-0.958,-0.098,112,0
1217,-0.242,-0.955,-0.103,112,0
1218,-0.245,-0.956,-0.102,112,0
1219,-0.249,-0.956,-0.099,112,0
1220,-0.253,-0.962,-0.096,112,0
1221,-0.257,-0.97,-0.098,114,0
1222,-0.257,-0.973,-0.099,114,0
1223,-0.253,-0.969,-0.096,114,0
1224,-0.244,-0.962,-0.098,114,0
1225,-0.235,-0.96,-0.104,114,0
1226,-0.228,-0.963,-0.108,114,0
1227,-0.224,-0.964,-0.108,114,0
1228,-0.226,-0.964,-0.107,114,0
1229,-0.23,-0.965,-0.106,114,0
1230,-0.231,-0.968,-0.103,114,0
1231,-0.228,-0.972,-0.101,115,0
1232,-0.227,-0.974,-0.101,115,0
1233,-0.224,-0.971,-0.101,115,0
1234,-0.222,-0.97,-0.101,115,0
1235,-0.225,-0.97,-0.099,115,0
1236,-0.228,-0.97,-0.102,115,0
1237,-0.231,-0.969,-0.104,115,0
1238,-0.235,-0.968,-0.102,115,0
1239,-0.237,-0.968,-0.101,115,0
1240,-0.238,-0.969,-0.101,115,0
1241,-0.24,-0.972,-0.1,116,0
1242,-0.241,-0.971,-0.099,116,0
1243,-0.234,-0.962,-0.104,116,0
1244,-0.223,-0.961,-0.111,116,0
1245,-0.222,-0.969,-0.106,116,0
1246,-0.235,-0.971,-0.094,116,0
1247,-0.246,-0.97,-0.092,116,0
1248,-0.245,-0.969,-0.098,116,0
1249,-0.231,-0.968,-0.107,116,0
1250,-0.213,-0.971,-0.109,116,0
1251,-0.208,-0.975,-0.101,117,0
1252,-0.218,-0.978,-0.086,117,0
1253,-0.229,-0.98,-0.079,117,0
1254,-0.237,-0.971,-0.097,117,0
1255,-0.237,-0.962,-0.115,117,0
1256,-0.237,-0.964,-0.104,117,0
1257,-0.232,-0.962,-0.086,117,0
1258,-0.225,-0.964,-0.09,117,0
1259,-0.219,-0.972,-0.104,117,0
1260,-0.202,-0.976,-0.107,117,0
1261,-0.19,-0.976,-0.095,118,0
1262,-0.202,-0.973,-0.09,118,0
1263,-0.223,-0.969,-0.098,118,0
1264,-0.224,-0.968,-0.104,118,0
1265,-0.206,-0.972,-0.108,118,0
1266,-0.197,-0.973,-0.11,118,0
1267,-0.201,-0.973,-0.103,118,0
1268,-0.215,-0.978,-0.098,118,0
1269,-0.231,-0.977,-0.104,118,0
1270,-0.234,-0.973,-0.108,118,0
1271,-0.222,-0.973,-0.103,118,0
1272,-0.216,-0.968,-0.104,118,0
1273,-0.221,-0.963,-0.11,118,0
1274,-0.23,-0.96,-0.11,118,0
1275,-0.236,-0.96,-0.108,118,0
1276,-0.238,-0.961,-0.109,118,0
1277,-0.239,-0.965,-0.107,118,0
1278,-0.241,-0.972,-0.101,118,0
1279,-0.241,-0.974,-0.101,118,0
1280,-0.234,-0.971,-0.107,118,0
1281,-0.224,-0.972,-0.112,118,0
1282,-0.215,-0.974,-0.11,118,0
1283,-0.215,-0.971,-0.108,118,0
1284,-0.219,-0.97,-0.11,118,0
1285,-0.223,-0.974,-0.112,118,0
1286,-0.219,-0.976,-0.111,118,0
1287,-0.209,-0.974,-0.11,118,0
1288,-0.198,-0.972,-0.11,118,0
1289,-0.192,-0.975,-0.112,118,0
1290,-0.198,-0.977,-0.11,118,0
1291,-0.212,-0.975,-0.105,118,0
1292,-0.224,-0.973,-0.104,118,0
1293,-0.229,-0.972,-0.108,118,0
1294,-0.229,-0.97,-0.106,118,0
1295,-0.229,-0.969,-0.103,118,0
1296,-0.231,-0.969,-0.104,118,0
1297,-0.233,-0.97,-0.107,118,0
1298,-0.234,-0.97,-0.105,118,0
1299,-0.235,-0.968,-0.103,118,0
1300,-0.236,-0.967,-0.104,118,0
1301,-0.235,-0.966,-0.106,118,0
1302,-0.231,-0.967,-0.105,118,0
1303,-0.227,-0.968,-0.105,118,0
1304,-0.224,-0.971,-0.107,118,0
1305,-0.226,-0.972,-0.106,118,0
1306,-0.228,-0.968,-0.105,118,0
1307,-0.229,-0.968,-0.105,118,0
1308,-0.227,-0.97,-0.106,118,0
1309,-0.225,-0.972,-0.104,118,0
1310,-0.228,-0.972,-0.101,118,0
1311,-0.232,-0.969,-0.103,119,0
1312,-0.23,-0.968,-0.106,119,0
1313,-0.224,-0.968,-0.107,119,0
1314,-0.22,-0.967,-0.107,119,0
1315,-0.222,-0.965,-0.108,119,0
1316,-0.227,-0.966,-0.109,119,0
1317,-0.231,-0.969,-0.112,119,0
1318,-0.226,-0.971,-0.116,119,0
1319,-0.215,-0.964,-0.114,119,0
1320,-0.22,-0.956,-0.099,119,0
1321,-0.24,-0.959,-0.095,119,0
1322,-0.25,-0.966,-0.11,119,0
1323,-0.247,-0.973,-0.119,119,0
1324,-0.231,-0.975,-0.113,119,0
1325,-0.214,-0.97,-0.109,119,0
1326,-0.212,-0.969,-0.113,119,0
1327,-0.219,-0.973,-0.116,119,0
1328,-0.224,-0.974,-0.118,119,0
1329,-0.226,-0.971,-0.116,119,0
1330,-0.229,-0.971,-0.114,119,0
1331,-0.234,-0.971,-0.115,119,0
1332,-0.239,-0.968,-0.116,119,0
1333,-0.239,-0.966,-0.115,119,0
1334,-0.234,-0.966,-0.114,119,0
1335,-0.23,-0.965,-0.114,119,0
1336,-0.23,-0.963,-0.115,119,0
1337,-0.234,-0.964,-0.115,119,0
1338,-0.236,-0.965,-0.112,119,0
1339,-0.238,-0.965,-0.108,119,0
1340,-0.241,-0.966,-0.106,119,0
1341,-0.242,-0.969,-0.105,119,0
1342,-0.24,-0.968,-0.108,119,0
1343,-0.235,-0.963,-0.109,119,0
1344,-0.233,-0.963,-0.111,119,0
1345,-0.236,-0.966,-0.112,119,0
1346,-0.237,-0.966,-0.11,119,0
1347,-0.234,-0.966,-0.109,119,0
1348,-0.233,-0.966,-0.111,119,0
1349,-0.233,-0.965,-0.111,119,0
1350,-0.232,-0.968,-0.11,119,0
1351,-0.232,-0.968,-0.111,119,0
1352,-0.234,-0.966,-0.112,119,0
1353,-0.236,-0.967,-0.11,119,0
1354,-0.236,-0.969,-0.108,119,0
1355,-0.237,-0.97,-0.105,119,0
1356,-0.236,-0.968,-0.103,119,0
1357,-0.234,-0.965,-0.105,119,0
1358,-0.236,-0.966,-0.109,119,0
1359,-0.237,-0.97,-0.11,119,0
1360,-0.233,-0.972,-0.108,119,0
1361,-0.228,-0.967,-0.106,119,0
1362,-0.227,-0.958,-0.108,119,0
1363,-0.23,-0.96,-0.114,119,0
1364,-0.231,-0.971,-0.117,119,0
1365,-0.232,-0.97,-0.115,119,0
1366,-0.229,-0.965,-0.113,119,0
1367,-0.221,-0.967,-0.112,119,0
1368,-0.217,-0.972,-0.113,119,0
1369,-0.218,-0.976,-0.114,119,0
1370,-0.223,-0.972,-0.114,119,0
1371,-0.231,-0.966,-0.112,120,0
1372,-0.238,-0.964,-0.109,120,0
1373,-0.241,-0.964,-0.108,120,0
1374,-0.241,-0.965,-0.111,120,0
1375,-0.234,-0.97,-0.115,120,0
1376,-0.227,-0.978,-0.118,120,0
1377,-0.224,-0.98,-0.115,120,0
1378,-0.226,-0.972,-0.111,120,0
1379,-0.23,-0.961,-0.113,120,0
1380,-0.232,-0.956,-0.116,120,0
1381,-0.231,-0.959,-0.116,120,0
1382,-0.23,-0.966,-0.115,120,0
1383,-0.224,-0.97,-0.115,120,0
1384,-0.216,-0.968,-0.118,120,0
1385,-0.212,-0.968,-0.118,120,0
1386,-0.216,-0.971,-0.111,120,0
1387,-0.223,-0.974,-0.106,120,0
1388,-0.226,-0.97,-0.11,120,0
1389,-0.223,-0.966,-0.112,120,0
1390,-0.222,-0.972,-0.109,120,0
1391,-0.227,-0.976,-0.105,121,0
1392,-0.233,-0.973,-0.103,121,0
1393,-0.235,-0.968,-0.102,121,0
1394,-0.231,-0.963,-0.104,121,0
1395,-0.219,-0.963,-0.112,121,0
1396,-0.202,-0.968,-0.116,121,0
1397,-0.198,-0.974,-0.105,121,0
1398,-0.221,-0.975,-0.089,121,0
1399,-0.248,-0.966,-0.089,121,0
1400,-0.258,-0.955,-0.104,121,0
1401,-0.25,-0.951,-0.117,122,0
1402,-0.228,-0.955,-0.117,122,0
1403,-0.194,-0.963,-0.11,122,0
1404,-0.177,-0.968,-0.102,122,0
1405,-0.202,-0.97,-0.099,122,0
1406,-0.246,-0.969,-0.098,122,0
1407,-0.279,-0.97,-0.097,122,0
1408,-0.287,-0.974,-0.097,122,0
1409,-0.269,-0.977,-0.089,122,0
1410,-0.237,-0.974,-0.082,122,0
1411,-0.22,-0.973,-0.088,123,0
1412,-0.226,-0.973,-0.103,123,0
1413,-0.233,-0.967,-0.11,123,0
1414,-0.227,-0.966,-0.102,123,0
1415,-0.219,-0.971,-0.081,123,0
1416,-0.225,-0.972,-0.068,123,0
1417,-0.238,-0.968,-0.076,123,0
1418,-0.243,-0.964,-0.09,123,0
1419,-0.236,-0.965,-0.094,123,0
1420,-0.222,-0.972,-0.087,123,0
1421,-0.218,-0.974,-0.078,124,0
1422,-0.226,-0.97,-0.077,124,0
1423,-0.239,-0.971,-0.081,124,0
1424,-0.242,-0.97,-0.075,124,0
1425,-0.233,-0.966,-0.064,124,0
1426,-0.225,-0.97,-0.058,124,0
1427,-0.224,-0.97,-0.063,124,0
1428,-0.229,-0.959,-0.078,124,0
1429,-0.238,-0.955,-0.086,124,0
1430,-0.244,-0.964,-0.078,124,0
1431,-0.248,-0.975,-0.062,125,0
1432,-0.256,-0.972,-0.049,125,0
1433,-0.261,-0.954,-0.056,125,0
1434,-0.254,-0.947,-0.073,125,0
1435,-0.245,-0.956,-0.075,125,0
1436,-0.243,-0.965,-0.065,125,0
1437,-0.246,-0.967,-0.062,125,0
1438,-0.248,-0.964,-0.068,125,0
1439,-0.246,-0.962,-0.073,125,0
1440,-0.24,-0.965,-0.072,125,0
1441,-0.233,-0.972,-0.068,125,0
1442,-0.245,-0.978,-0.06,125,0
1443,-0.262,-0.971,-0.059,125,0
1444,-0.26,-0.96,-0.072,125,0
1445,-0.243,-0.96,-0.083,125,0
1446,-0.223,-0.965,-0.083,125,0
1447,-0.212,-0.971,-0.076,125,0
1448,-0.215,-0.977,-0.07,125,0
1449,-0.234,-0.976,-0.074,125,0
1450,-0.248,-0.958,-0.084,125,0
1451,-0.261,-0.932,-0.093,126,0
1452,-0.286,-0.94,-0.085,126,0
1453,-0.296,-0.98,-0.076,126,0
1454,-0.253,-0.994,-0.087,126,0
1455,-0.182,-0.959,-0.106,126,0
1456,-0.148,-0.926,-0.104,126,0
1457,-0.184,-0.933,-0.078,126,0
1458,-0.261,-0.96,-0.062,126,0
1459,-0.312,-0.975,-0.078,126,0
1460,-0.321,-0.971,-0.101,126,0
1461,-0.3,-0.956,-0.102,127,0
1462,-0.269,-0.954,-0.093,127,0
1463,-0.253,-0.959,-0.091,127,0
1464,-0.254,-0.959,-0.097,127,0
1465,-0.253,-0.957,-0.098,127,0
1466,-0.247,-0.957,-0.097,127,0
1467,-0.246,-0.96,-0.099,127,0
1468,-0.247,-0.967,-0.1,127,0
1469,-0.247,-0.964,-0.102,127,0
1470,-0.239,-0.958,-0.103,127,0
1471,-0.238,-0.965,-0.099,127,0
1472,-0.257,-0.97,-0.091,127,0
1473,-0.274,-0.958,-0.094,127,0
1474,-0.268,-0.95,-0.104,127,0
1475,-0.258,-0.955,-0.103,127,0
1476,-0.255,-0.958,-0.094,127,0
1477,-0.252,-0.959,-0.097,127,0
1478,-0.25,-0.963,-0.102,127,0
1479,-0.253,-0.967,-0.096,127,0
1480,-0.256,-0.96,-0.096,127,0
1481,-0.259,-0.954,-0.106,127,0
1482,-0.26,-0.961,-0.103,127,0
1483,-0.267,-0.969,-0.087,127,0
1484,-0.27,-0.962,-0.086,127,0
1485,-0.249,-0.952,-0.093,127,0
1486,-0.234,-0.956,-0.1,127,0
1487,-0.239,-0.961,-0.106,127,0
1488,-0.244,-0.962,-0.096,127,0
1489,-0.25,-0.958,-0.085,127,0
1490,-0.252,-0.952,-0.094,127,0
1491,-0.249,-0.954,-0.108,128,0
1492,-0.245,-0.962,-0.107,128,0
1493,-0.24,-0.964,-0.1,128,0
1494,-0.242,-0.963,-0.098,128,0
1495,-0.247,-0.961,-0.098,128,0
1496,-0.248,-0.958,-0.1,128,0
1497,-0.243,-0.964,-0.104,128,0
1498,-0.231,-0.974,-0.102,128,0
1499,-0.222,-0.98,-0.095,128,0
1500,-0.22,-0.981,-0.095,128,0
1501,-0.217,-0.979,-0.102,128,0
1502,-0.208,-0.979,-0.109,128,0
1503,-0.192,-0.979,-0.113,128,0
1504,-0.18,-0.974,-0.113,128,0
1505,-0.19,-0.966,-0.111,128,0
1506,-0.213,-0.963,-0.107,128,0
1507,-0.233,-0.966,-0.104,128,0
1508,-0.241,-0.969,-0.106,128,0
1509,-0.234,-0.966,-0.108,128,0
1510,-0.221,-0.964,-0.113,128,0
1511,-0.218,-0.968,-0.124,128,0
1512,-0.225,-0.969,-0.118,128,0
1513,-0.22,-0.969,-0.103,128,0
1514,-0.199,-0.969,-0.1,128,0
1515,-0.19,-0.973,-0.105,128,0
1516,-0.196,-0.976,-0.112,128,0
1517,-0.201,-0.977,-0.114,128,0
1518,-0.201,-0.977,-0.117,128,0
1519,-0.197,-0.976,-0.121,128,0
1520,-0.195,-0.977,-0.122,128,0
1521,-0.196,-0.975,-0.121,128,0
1522,-0.199,-0.972,-0.124,128,0
1523,-0.202,-0.973,-0.13,128,0
1524,-0.202,-0.972,-0.141,128,0
1525,-0.192,-0.968,-0.146,128,0
1526,-0.177,-0.968,-0.141,128,0
1527,-0.17,-0.967,-0.138,128,0
1528,-0.178,-0.967,-0.14,128,0
1529,-0.196,-0.968,-0.145,128,0
1530,-0.2,-0.97,-0.156,128,0
1531,-0.186,-0.973,-0.17,128,0
1532,-0.163,-0.978,-0.173,128,0
1533,-0.143,-0.98,-0.167,128,0
1534,-0.134,-0.984,-0.165,128,0
1535,-0.135,-0.983,-0.182,128,0
1536,-0.148,-0.966,-0.192,128,0
1537,-0.171,-0.952,-0.174,128,0
1538,-0.196,-0.956,-0.155,128,0
1539,-0.2,-0.966,-0.161,128,0
1540,-0.176,-0.97,-0.181,128,0
1541,-0.153,-0.973,-0.179,128,0
1542,-0.15,-0.977,-0.159,128,0
1543,-0.167,-0.974,-0.154,128,0
1544,-0.181,-0.974,-0.17,128,0
1545,-0.179,-0.977,-0.189,128,0
1546,-0.165,-0.98,-0.193,128,0
1547,-0.145,-0.98,-0.185,128,0
1548,-0.133,-0.978,-0.182,128,0
1549,-0.132,-0.974,-0.187,128,0
1550,-0.138,-0.969,-0.191,128,0
1551,-0.15,-0.972,-0.189,129,0
1552,-0.166,-0.98,-0.184,129,0
1553,-0.167,-0.984,-0.18,129,0
1554,-0.153,-0.985,-0.173,129,0
1555,-0.148,-0.983,-0.168,129,0
1556,-0.159,-0.976,-0.176,129,0
1557,-0.17,-0.973,-0.187,129,0
1558,-0.177,-0.979,-0.182,129,0
1559,-0.169,-0.975,-0.162,129,0
1560,-0.167,-0.964,-0.146,129,0
1561,-0.191,-0.967,-0.141,129,0
1562,-0.212,-0.975,-0.152,129,0
1563,-0.217,-0.978,-0.156,129,0
1564,-0.202,-0.957,-0.151,129,0
1565,-0.174,-0.928,-0.158,129,0
1566,-0.167,-0.929,-0.155,129,0
1567,-0.19,-0.945,-0.14,129,0
1568,-0.227,-0.958,-0.132,129,0
1569,-0.255,-0.959,-0.132,129,0
1570,-0.273,-0.946,-0.134,129,0
1571,-0.288,-0.949,-0.132,129,0
1572,-0.289,-0.965,-0.12,129,0
1573,-0.277,-0.968,-0.119,129,0
1574,-0.262,-0.962,-0.129,129,0
1575,-0.251,-0.947,-0.129,129,0
1576,-0.248,-0.926,-0.121,129,0
1577,-0.256,-0.929,-0.115,129,0
1578,-0.271,-0.947,-0.115,129,0
1579,-0.285,-0.956,-0.124,129,0
1580,-0.296,-0.954,-0.139,129,0
1581,-0.292,-0.955,-0.155,129,0
1582,-0.278,-0.963,-0.155,129,0
1583,-0.266,-0.965,-0.143,129,0
1584,-0.265,-0.966,-0.131,129,0
1585,-0.27,-0.96,-0.125,129,0
1586,-0.274,-0.937,-0.123,129,0
1587,-0.287,-0.926,-0.123,129,0
1588,-0.302,-0.936,-0.127,129,0
1589,-0.304,-0.947,-0.133,129,0
1590,-0.293,-0.96,-0.135,129,0
1591,-0.272,-0.972,-0.132,129,0
1592,-0.249,-0.972,-0.128,129,0
1593,-0.235,-0.962,-0.127,129,0
1594,-0.237,-0.95,-0.125,129,0
1595,-0.248,-0.946,-0.12,129,0
1596,-0.265,-0.95,-0.112,129,0
1597,-0.283,-0.952,-0.109,129,0
1598,-0.291,-0.953,-0.117,129,0
1599,-0.292,-0.951,-0.128,129,0
1600,-0.286,-0.949,-0.13,129,0
1601,-0.277,-0.949,-0.123,130,0
1602,-0.27,-0.953,-0.117,130,0
1603,-0.262,-0.955,-0.118,130,0
1604,-0.257,-0.958,-0.122,130,0
1605,-0.261,-0.96,-0.122,130,0
1606,-0.272,-0.957,-0.12,130,0
1607,-0.28,-0.952,-0.121,130,0
1608,-0.275,-0.949,-0.126,130,0
1609,-0.261,-0.952,-0.132,130,0
1610,-0.252,-0.965,-0.129,130,0
1611,-0.248,-0.978,-0.123,130,0
1612,-0.247,-1.004,-0.111,130,0
1613,-0.232,-0.994,-0.097,130,0
1614,-0.194,-0.925,-0.115,130,0
1615,-0.188,-0.881,-0.147,130,0
1616,-0.232,-0.88,-0.156,130,0
1617,-0.28,-0.905,-0.146,130,0
1618,-0.32,-0.944,-0.123,130,0
1619,-0.337,-0.972,-0.106,130,0
1620,-0.317,-0.988,-0.104,130,0
1621,-0.286,-0.988,-0.111,130,0
1622,-0.253,-0.972,-0.121,130,0
1623,-0.215,-0.964,-0.127,130,0
1624,-0.188,-0.97,-0.12,130,0
1625,-0.195,-0.979,-0.112,130,0
1626,-0.223,-0.98,-0.108,130,0
1627,-0.244,-0.973,-0.105,130,0
1628,-0.245,-0.967,-0.104,130,0
1629,-0.234,-0.967,-0.103,130,0
1630,-0.215,-0.971,-0.104,130,0
1631,-0.202,-0.97,-0.106,130,0
1632,-0.203,-0.958,-0.109,130,0
1633,-0.213,-0.947,-0.109,130,0
1634,-0.227,-0.943,-0.103,130,0
1635,-0.237,-0.947,-0.094,130,0
1636,-0.251,-0.957,-0.09,130,0
1637,-0.268,-0.971,-0.09,130,0
1638,-0.275,-0.976,-0.092,130,0
1639,-0.265,-0.961,-0.09,130,0
1640,-0.252,-0.946,-0.088,130,0
1641,-0.248,-0.942,-0.09,130,0
1642,-0.252,-0.946,-0.094,130,0
1643,-0.255,-0.956,-0.101,130,0
1644,-0.262,-0.968,-0.103,130,0
1645,-0.266,-0.976,-0.104,130,0
1646,-0.257,-0.98,-0.106,130,0
1647,-0.245,-0.972,-0.106,130,0
1648,-0.239,-0.959,-0.105,130,0
1649,-0.242,-0.955,-0.104,130,0
1650,-0.251,-0.955,-0.104,130,0
1651,-0.265,-0.955,-0.101,130,0
1652,-0.277,-0.959,-0.098,130,0
1653,-0.275,-0.965,-0.094,130,0
1654,-0.262,-0.959,-0.097,130,0
1655,-0.251,-0.953,-0.104,130,0
1656,-0.247,-0.958,-0.104,130,0
1657,-0.247,-0.964,-0.103,130,0
1658,-0.242,-0.968,-0.105,130,0
1659,-0.229,-0.971,-0.106,130,0
1660,-0.214,-0.974,-0.105,130,0
1661,-0.196,-0.972,-0.101,130,0
1662,-0.183,-0.969,-0.095,130,0
1663,-0.191,-0.971,-0.096,130,0
1664,-0.221,-0.97,-0.103,130,0
1665,-0.243,-0.968,-0.105,130,0
1666,-0.24,-0.971,-0.103,130,0
1667,-0.22,-0.972,-0.105,130,0
1668,-0.197,-0.971,-0.111,130,0
1669,-0.177,-0.974,-0.111,130,0
1670,-0.178,-0.978,-0.11,130,0
1671,-0.191,-0.975,-0.111,130,0
1672,-0.195,-0.97,-0.113,130,0
1673,-0.19,-0.971,-0.112,130,0
1674,-0.183,-0.977,-0.112,130,0
1675,-0.176,-0.98,-0.114,130,0
1676,-0.167,-0.98,-0.116,130,0
1677,-0.165,-0.978,-0.116,130,0
1678,-0.175,-0.977,-0.118,130,0
1679,-0.186,-0.979,-0.117,130,0
1680,-0.191,-0.982,-0.113,130,0
1681,-0.199,-0.981,-0.112,130,0
1682,-0.208,-0.974,-0.117,130,0
1683,-0.21,-0.969,-0.121,130,0
1684,-0.208,-0.969,-0.12,130,0
1685,-0.206,-0.973,-0.119,130,0
1686,-0.207,-0.978,-0.115,130,0
1687,-0.208,-0.975,-0.113,130,0
1688,-0.212,-0.971,-0.113,130,0
1689,-0.219,-0.97,-0.114,130,0
1690,-0.224,-0.967,-0.111,130,0
1691,-0.224,-0.963,-0.109,130,0
1692,-0.226,-0.965,-0.11,130,0
1693,-0.231,-0.969,-0.11,130,0
1694,-0.234,-0.97,-0.105,130,0
1695,-0.234,-0.973,-0.101,130,0
1696,-0.233,-0.973,-0.103,130,0
1697,-0.231,-0.968,-0.108,130,0
1698,-0.232,-0.964,-0.113,130,0
1699,-0.236,-0.965,-0.115,130,0
1700,-0.237,-0.968,-0.113,130,0
1701,-0.231,-0.97,-0.112,130,0
1702,-0.224,-0.969,-0.111,130,0
1703,-0.223,-0.969,-0.11,130,0
1704,-0.225,-0.967,-0.109,130,0
1705,-0.229,-0.968,-0.106,130,0
1706,-0.232,-0.97,-0.106,130,0
1707,-0.23,-0.971,-0.109,130,0
1708,-0.223,-0.968,-0.11,130,0
1709,-0.216,-0.968,-0.109,130,0
1710,-0.216,-0.971,-0.108,130,0
1711,-0.223,-0.971,-0.108,130,0
1712,-0.235,-0.967,-0.107,130,0
1713,-0.237,-0.964,-0.108,130,0
1714,-0.238,-0.964,-0.109,130,0
1715,-0.238,-0.967,-0.109,130,0
1716,-0.238,-0.969,-0.11,130,0
1717,-0.234,-0.968,-0.112,130,0
1718,-0.229,-0.967,-0.113,130,0
1719,-0.229,-0.966,-0.113,130,0
1720,-0.234,-0.965,-0.114,130,0
1721,-0.237,-0.965,-0.115,130,0
1722,-0.238,-0.964,-0.115,130,0
1723,-0.234,-0.966,-0.114,130,0
1724,-0.228,-0.967,-0.115,130,0
1725,-0.225,-0.967,-0.117,130,0
1726,-0.23,-0.968,-0.117,130,0
1727,-0.235,-0.968,-0.119,130,0
1728,-0.236,-0.966,-0.121,130,0
1729,-0.231,-0.968,-0.119,130,0
1730,-0.225,-0.971,-0.116,130,0
1731,-0.225,-0.971,-0.114,130,0
1732,-0.23,-0.97,-0.114,130,0
1733,-0.235,-0.969,-0.114,130,0
1734,-0.24,-0.972,-0.113,130,0
1735,-0.241,-0.976,-0.111,130,0
1736,-0.233,-0.968,-0.112,130,0
1737,-0.217,-0.964,-0.115,130,0
1738,-0.202,-0.965,-0.115,130,0
1739,-0.196,-0.968,-0.114,130,0
1740,-0.203,-0.974,-0.11,130,0
1741,-0.217,-0.975,-0.107,130,0
1742,-0.225,-0.973,-0.105,130,0
1743,-0.223,-0.971,-0.104,130,0
1744,-0.217,-0.972,-0.105,130,0
1745,-0.211,-0.973,-0.107,130,0
1746,-0.212,-0.974,-0.107,130,0
1747,-0.216,-0.975,-0.108,130,0
1748,-0.214,-0.974,-0.108,130,0
1749,-0.212,-0.975,-0.104,130,0
1750,-0.219,-0.979,-0.097,130,0
1751,-0.228,-0.978,-0.094,130,0
1752,-0.228,-0.97,-0.098,130,0
1753,-0.22,-0.962,-0.103,130,0
1754,-0.213,-0.962,-0.106,130,0
1755,-0.213,-0.968,-0.11,130,0
1756,-0.216,-0.968,-0.106,130,0
1757,-0.224,-0.963,-0.095,130,0
1758,-0.234,-0.965,-0.088,130,0
1759,-0.242,-0.97,-0.084,130,0
1760,-0.243,-0.972,-0.084,130,0
1761,-0.232,-0.969,-0.098,130,0
1762,-0.24,-0.971,-0.101,130,0
1763,-0.252,-0.977,-0.083,130,0
1764,-0.239,-0.967,-0.075,130,0
1765,-0.226,-0.95,-0.078,130,0
1766,-0.225,-0.949,-0.08,130,0
1767,-0.232,-0.96,-0.079,130,0
1768,-0.239,-0.966,-0.077,130,0
1769,-0.244,-0.969,-0.079,130,0
1770,-0.244,-0.974,-0.086,130,0
1771,-0.243,-0.976,-0.092,130,0
1772,-0.244,-0.973,-0.093,130,0
1773,-0.24,-0.969,-0.095,130,0
1774,-0.232,-0.971,-0.098,130,0
1775,-0.229,-0.973,-0.097,130,0
1776,-0.234,-0.969,-0.09,130,0
1777,-0.238,-0.967,-0.083,130,0
1778,-0.239,-0.966,-0.083,130,0
1779,-0.236,-0.965,-0.082,130,0
1780,-0.236,-0.966,-0.08,130,0
1781,-0.235,-0.969,-0.081,130,0
1782,-0.234,-0.967,-0.083,130,0
1783,-0.235,-0.965,-0.081,130,0
1784,-0.237,-0.968,-0.077,130,0
1785,-0.241,-0.967,-0.074,130,0
1786,-0.247,-0.962,-0.078,130,0
1787,-0.25,-0.966,-0.083,130,0
1788,-0.242,-0.968,-0.082,130,0
1789,-0.233,-0.965,-0.075,130,0
1790,-0.235,-0.963,-0.075,130,0
1791,-0.241,-0.965,-0.083,130,0
1792,-0.245,-0.969,-0.085,130,0
1793,-0.242,-0.969,-0.081,130,0
1794,-0.23,-0.968,-0.078,130,0
1795,-0.219,-0.969,-0.079,130,0
1796,-0.219,-0.971,-0.083,130,0
1797,-0.228,-0.974,-0.084,130,0
1798,-0.235,-0.971,-0.084,130,0
1799,-0.233,-0.966,-0.089,130,0
1800,-0.227,-0.968,-0.09,130,0
1801,-0.226,-0.971,-0.086,130,0
1802,-0.231,-0.975,-0.082,130,0
1803,-0.234,-0.978,-0.082,130,0
1804,-0.229,-0.974,-0.087,130,0
1805,-0.218,-0.969,-0.093,130,0
1806,-0.21,-0.968,-0.098,130,0
1807,-0.209,-0.97,-0.099,130,0
1808,-0.216,-0.973,-0.096,130,0
1809,-0.226,-0.972,-0.093,130,0
1810,-0.233,-0.972,-0.094,130,0
1811,-0.237,-0.973,-0.097,130,0
1812,-0.231,-0.973,-0.098,130,0
1813,-0.222,-0.973,-0.096,130,0
1814,-0.224,-0.968,-0.096,130,0
1815,-0.232,-0.965,-0.097,130,0
1816,-0.236,-0.968,-0.097,130,0
1817,-0.234,-0.973,-0.096,130,0
1818,-0.229,-0.973,-0.095,130,0
1819,-0.221,-0.969,-0.096,130,0
1820,-0.212,-0.964,-0.099,130,0
1821,-0.213,-0.967,-0.1,130,0
1822,-0.224,-0.975,-0.098,130,0
1823,-0.23,-0.978,-0.097,130,0
1824,-0.22,-0.975,-0.101,130,0
1825,-0.201,-0.975,-0.1,130,0
1826,-0.195,-0.977,-0.098,130,0
1827,-0.201,-0.977,-0.097,130,0
1828,-0.209,-0.974,-0.097,130,0
1829,-0.209,-0.974,-0.096,130,0
1830,-0.207,-0.975,-0.096,130,0
1831,-0.211,-0.974,-0.097,130,0
1832,-0.219,-0.974,-0.099,130,0
1833,-0.22,-0.97,-0.1,130,0
1834,-0.217,-0.968,-0.096,130,0
1835,-0.218,-0.971,-0.092,130,0
1836,-0.22,-0.972,-0.092,130,0
1837,-0.219,-0.974,-0.092,130,0
1838,-0.22,-0.978,-0.09,130,0
1839,-0.22,-0.974,-0.088,130,0
1840,-0.215,-0.963,-0.095,130,0
1841,-0.213,-0.965,-0.099,129,0
1842,-0.222,-0.974,-0.09,129,0
1843,-0.234,-0.98,-0.077,129,0
1844,-0.238,-0.979,-0.072,129,0
1845,-0.23,-0.964,-0.081,129,0
1846,-0.217,-0.955,-0.096,129,0
1847,-0.218,-0.963,-0.097,129,0
1848,-0.229,-0.974,-0.082,129,0
1849,-0.238,-0.978,-0.071,129,0
1850,-0.233,-0.969,-0.081,129,0
1851,-0.215,-0.961,-0.101,129,0
1852,-0.203,-0.966,-0.103,129,0
1853,-0.208,-0.975,-0.092,129,0
1854,-0.216,-0.979,-0.085,129,0
1855,-0.215,-0.976,-0.091,129,0
1856,-0.216,-0.965,-0.103,129,0
1857,-0.224,-0.961,-0.106,129,0
1858,-0.232,-0.964,-0.098,129,0
1859,-0.235,-0.97,-0.09,129,0
1860,-0.232,-0.97,-0.092,129,0
1861,-0.225,-0.968,-0.098,129,0
1862,-0.223,-0.966,-0.099,129,0
1863,-0.226,-0.968,-0.104,129,0
1864,-0.235,-0.973,-0.107,129,0
1865,-0.241,-0.969,-0.103,129,0
1866,-0.23,-0.966,-0.099,129,0
1867,-0.208,-0.972,-0.101,129,0
1868,-0.192,-0.977,-0.101,129,0
1869,-0.194,-0.976,-0.098,129,0
1870,-0.208,-0.972,-0.1,129,0
1871,-0.223,-0.973,-0.105,129,0
1872,-0.229,-0.977,-0.108,129,0
1873,-0.227,-0.978,-0.108,129,0
1874,-0.223,-0.975,-0.106,129,0
1875,-0.219,-0.974,-0.108,129,0
1876,-0.214,-0.973,-0.11,129,0
1877,-0.209,-0.972,-0.11,129,0
1878,-0.205,-0.973,-0.108,129,0
1879,-0.207,-0.974,-0.106,129,0
1880,-0.211,-0.975,-0.108,129,0
1881,-0.213,-0.973,-0.111,129,0
1882,-0.217,-0.969,-0.11,129,0
1883,-0.222,-0.968,-0.108,129,0
1884,-0.224,-0.971,-0.108,129,0
1885,-0.222,-0.974,-0.11,129,0
1886,-0.22,-0.975,-0.113,129,0
1887,-0.215,-0.976,-0.117,129,0
1888,-0.205,-0.977,-0.119,129,0
1889,-0.206,-0.973,-0.112,129,0
1890,-0.223,-0.971,-0.101,129,0
1891,-0.237,-0.966,-0.099,129,0
1892,-0.236,-0.959,-0.109,129,0
1893,-0.224,-0.965,-0.112,129,0
1894,-0.212,-0.974,-0.106,129,0
1895,-0.206,-0.976,-0.107,129,0
1896,-0.209,-0.973,-0.111,129,0
1897,-0.219,-0.969,-0.112,129,0
1898,-0.222,-0.969,-0.109,129,0
1899,-0.221,-0.968,-0.106,129,0
1900,-0.222,-0.976,-0.108,129,0
1901,-0.224,-0.988,-0.108,128,0
1902,-0.221,-0.973,-0.103,128,0
1903,-0.219,-0.951,-0.098,128,0
1904,-0.227,-0.948,-0.099,128,0
1905,-0.233,-0.954,-0.102,128,0
1906,-0.234,-0.961,-0.103,128,0
1907,-0.224,-0.969,-0.101,128,0
1908,-0.212,-0.976,-0.101,128,0
1909,-0.208,-0.978,-0.103,128,0
1910,-0.214,-0.977,-0.104,128,0
1911,-0.224,-0.974,-0.104,128,0
1912,-0.229,-0.97,-0.104,128,0
1913,-0.228,-0.97,-0.107,128,0
1914,-0.226,-0.97,-0.109,128,0
1915,-0.226,-0.968,-0.108,128,0
1916,-0.226,-0.967,-0.104,128,0
1917,-0.229,-0.967,-0.099,128,0
1918,-0.238,-0.967,-0.098,128,0
1919,-0.242,-0.968,-0.107,128,0
1920,-0.237,-0.971,-0.115,128,0
1921,-0.227,-0.971,-0.113,128,0
1922,-0.216,-0.97,-0.104,128,0
1923,-0.216,-0.966,-0.095,128,0
1924,-0.227,-0.962,-0.096,128,0
1925,-0.238,-0.962,-0.102,128,0
1926,-0.241,-0.967,-0.104,128,0
1927,-0.24,-0.971,-0.103,128,0
1928,-0.234,-0.971,-0.104,128,0
1929,-0.229,-0.968,-0.109,128,0
1930,-0.231,-0.966,-0.112,128,0
1931,-0.237,-0.967,-0.113,128,0
1932,-0.237,-0.969,-0.111,128,0
1933,-0.232,-0.972,-0.109,128,0
1934,-0.231,-0.97,-0.107,128,0
1935,-0.233,-0.966,-0.108,128,0
1936,-0.235,-0.964,-0.109,128,0
1937,-0.238,-0.965,-0.111,128,0
1938,-0.238,-0.966,-0.111,128,0
1939,-0.235,-0.968,-0.107,128,0
1940,-0.235,-0.968,-0.105,128,0
1941,-0.24,-0.967,-0.107,128,0
1942,-0.244,-0.969,-0.106,128,0
1943,-0.242,-0.969,-0.101,128,0
1944,-0.232,-0.963,-0.1,128,0
1945,-0.228,-0.956,-0.106,128,0
1946,-0.229,-0.956,-0.113,128,0
1947,-0.223,-0.954,-0.12,128,0
1948,-0.221,-0.952,-0.124,128,0
1949,-0.232,-0.958,-0.121,128,0
1950,-0.246,-0.967,-0.115,128,0
1951,-0.251,-0.977,-0.106,127,0
1952,-0.245,-0.978,-0.1,127,0
1953,-0.235,-0.97,-0.102,127,0
1954,-0.224,-0.967,-0.11,127,0
1955,-0.214,-0.973,-0.115,127,0
1956,-0.214,-0.977,-0.115,127,0
1957,-0.222,-0.976,-0.114,127,0
1958,-0.231,-0.972,-0.112,127,0
1959,-0.23,-0.969,-0.112,127,0
1960,-0.222,-0.968,-0.111,127,0
1961,-0.224,-0.971,-0.112,127,0
1962,-0.232,-0.971,-0.113,127,0
1963,-0.234,-0.97,-0.114,127,0
1964,-0.23,-0.969,-0.113,127,0
1965,-0.225,-0.968,-0.112,127,0
1966,-0.227,-0.966,-0.11,127,0
1967,-0.234,-0.964,-0.109,127,0
1968,-0.24,-0.963,-0.111,127,0
1969,-0.238,-0.962,-0.113,127,0
1970,-0.232,-0.965,-0.112,127,0
1971,-0.231,-0.968,-0.109,127,0
1972,-0.235,-0.968,-0.109,127,0
1973,-0.238,-0.967,-0.109,127,0
1974,-0.238,-0.966,-0.106,127,0
1975,-0.239,-0.966,-0.104,127,0
1976,-0.242,-0.966,-0.107,127,0
1977,-0.244,-0.966,-0.109,127,0
1978,-0.244,-0.964,-0.109,127,0
1979,-0.243,-0.961,-0.108,127,0
1980,-0.243,-0.96,-0.108,127,0
1981,-0.243,-0.962,-0.108,127,0
1982,-0.244,-0.966,-0.104,127,0
1983,-0.246,-0.967,-0.101,127,0
1984,-0.249,-0.965,-0.1,127,0
1985,-0.247,-0.962,-0.103,127,0
1986,-0.243,-0.961,-0.104,127,0
1987,-0.24,-0.962,-0.104,127,0
1988,-0.241,-0.965,-0.101,127,0
1989,-0.241,-0.966,-0.101,127,0
1990,-0.241,-0.962,-0.104,127,0
1991,-0.243,-0.962,-0.105,127,0
1992,-0.249,-0.966,-0.101,127,0
1993,-0.252,-0.968,-0.096,127,0
1994,-0.249,-0.965,-0.095,127,0
1995,-0.245,-0.958,-0.097,127,0
1996,-0.246,-0.958,-0.102,127,0
1997,-0.247,-0.962,-0.104,127,0
1998,-0.242,-0.966,-0.103,127,0
1999,-0.237,-0.967,-0.102,127,0
2000,-0.237,-0.963,-0.104,127,0
2001,-0.241,-0.961,-0.106,126,0
2002,-0.244,-0.962,-0.106,126,0
2003,-0.245,-0.963,-0.105,126,0
2004,-0.244,-0.964,-0.105,126,0
2005,-0.244,-0.963,-0.105,126,0
2006,-0.245,-0.961,-0.104,126,0
2007,-0.249,-0.96,-0.105,126,0
2008,-0.251,-0.958,-0.107,126,0
2009,-0.251,-0.96,-0.109,126,0
2010,-0.25,-0.967,-0.107,126,0
2011,-0.25,-0.975,-0.101,126,0
2012,-0.25,-0.981,-0.094,126,0
2013,-0.248,-0.983,-0.092,126,0
2014,-0.236,-0.981,-0.094,126,0
2015,-0.2,-0.968,-0.107,126,0
2016,-0.15,-0.938,-0.125,126,0
2017,-0.126,-0.917,-0.132,126,0
2018,-0.141,-0.923,-0.124,126,0
2019,-0.185,-0.941,-0.113,126,0
2020,-0.242,-0.958,-0.109,126,0
2021,-0.284,-0.969,-0.112,126,0
2022,-0.304,-0.974,-0.112,126,0
2023,-0.306,-0.973,-0.117,126,0
2024,-0.289,-0.972,-0.126,126,0
2025,-0.26,-0.974,-0.133,126,0
2026,-0.225,-0.978,-0.139,126,0
2027,-0.201,-0.978,-0.139,126,0
2028,-0.203,-0.969,-0.136,126,0
2029,-0.218,-0.967,-0.136,126,0
2030,-0.225,-0.97,-0.141,126,0
2031,-0.214,-0.967,-0.151,126,0
2032,-0.191,-0.968,-0.162,126,0
2033,-0.175,-0.974,-0.168,126,0
2034,-0.171,-0.975,-0.166,126,0
2035,-0.178,-0.973,-0.157,126,0
2036,-0.197,-0.964,-0.15,126,0
2037,-0.219,-0.95,-0.151,126,0
2038,-0.238,-0.949,-0.146,126,0
2039,-0.252,-0.958,-0.137,126,0
2040,-0.252,-0.969,-0.136,126,0
2041,-0.241,-0.969,-0.142,125,0
2042,-0.225,-0.969,-0.148,125,0
2043,-0.209,-0.973,-0.153,125,0
2044,-0.21,-0.972,-0.151,125,0
2045,-0.231,-0.967,-0.147,125,0
2046,-0.256,-0.959,-0.151,125,0
2047,-0.266,-0.95,-0.16,125,0
2048,-0.262,-0.95,-0.164,125,0
2049,-0.256,-0.953,-0.159,125,0
2050,-0.248,-0.954,-0.158,125,0
2051,-0.237,-0.956,-0.172,125,0
2052,-0.222,-0.958,-0.188,125,0
2053,-0.209,-0.969,-0.183,125,0
2054,-0.207,-0.975,-0.163,125,0
2055,-0.209,-0.968,-0.156,125,0
2056,-0.206,-0.963,-0.166,125,0
2057,-0.201,-0.977,-0.172,125,0
2058,-0.199,-0.991,-0.166,125,0
2059,-0.199,-0.984,-0.159,125,0
2060,-0.192,-0.967,-0.168,125,0
2061,-0.173,-0.969,-0.191,125,0
2062,-0.138,-0.992,-0.196,125,0
2063,-0.1,-1.018,-0.18,125,0
2064,-0.095,-1.025,-0.18,125,0
2065,-0.109,-1.01,-0.201,125,0
2066,-0.112,-0.981,-0.21,125,0
2067,-0.102,-0.962,-0.211,125,0
2068,-0.089,-0.958,-0.205,125,0
2069,-0.092,-0.941,-0.185,125,0
2070,-0.108,-0.926,-0.184,125,0
2071,-0.12,-0.942,-0.198,125,0
2072,-0.079,-0.988,-0.192,125,0
2073,-0.018,-1.074,-0.155,125,0
2074,-0.005,-1.121,-0.117,125,0
2075,-0.023,-1.067,-0.109,125,0
2076,-0.046,-0.97,-0.112,125,0
2077,-0.046,-0.918,-0.107,125,0
2078,-0.01,-0.941,-0.078,125,0
2079,0.035,-0.977,-0.049,125,0
2080,0.056,-0.98,-0.057,125,0
2081,0.06,-0.959,-0.072,125,0
2082,0.07,-0.944,-0.069,125,0
2083,0.058,-0.95,-0.049,125,0
2084,0.001,-0.96,-0.027,125,0
2085,-0.063,-0.966,-0.011,125,0
2086,-0.114,-0.96,0,125,0
2087,-0.136,-0.955,0,125,0
2088,-0.136,-0.966,-0.003,125,0
2089,-0.122,-0.985,-0.009,125,0
2090,-0.082,-0.992,-0.011,125,0
2091,-0.037,-0.986,0.003,124,0
2092,-0.038,-0.985,0.019,124,0
2093,-0.092,-0.994,0.008,124,0
2094,-0.129,-0.999,-0.011,124,0
2095,-0.119,-0.997,-0.011,124,0
2096,-0.103,-0.995,-0.005,124,0
2097,-0.092,-0.986,-0.01,124,0
2098,-0.078,-0.977,-0.017,124,0
2099,-0.079,-0.986,-0.026,124,0
2100,-0.1,-0.995,-0.031,124,0
2101,-0.129,-0.974,-0.041,124,0
2102,-0.163,-0.947,-0.054,124,0
2103,-0.196,-0.947,-0.046,124,0
2104,-0.214,-0.965,-0.031,124,0
2105,-0.219,-0.977,-0.036,124,0
2106,-0.22,-0.984,-0.053,124,0
2107,-0.218,-0.993,-0.065,124,0
2108,-0.204,-0.998,-0.065,124,0
2109,-0.195,-0.995,-0.066,124,0
2110,-0.18,-0.993,-0.082,124,0
2111,-0.155,-1.004,-0.106,124,0
2112,-0.138,-1.017,-0.105,124,0
2113,-0.129,-1.009,-0.076,124,0
2114,-0.128,-0.985,-0.059,124,0
2115,-0.146,-0.968,-0.054,124,0
2116,-0.174,-0.968,-0.06,124,0
2117,-0.178,-0.975,-0.083,124,0
2118,-0.181,-0.978,-0.091,124,0
2119,-0.171,-0.982,-0.074,124,0
2120,-0.121,-0.976,-0.048,124,0
2121,-0.086,-0.965,-0.017,124,0
2122,-0.109,-0.97,0.002,124,0
2123,-0.172,-0.976,0.005,124,0
2124,-0.225,-0.979,0.005,124,0
2125,-0.246,-0.982,0.001,124,0
2126,-0.236,-0.982,0,124,0
2127,-0.216,-0.979,0.001,124,0
2128,-0.213,-0.981,-0.004,124,0
2129,-0.229,-0.98,-0.012,124,0
2130,-0.239,-0.97,-0.019,124,0
2131,-0.234,-0.961,-0.018,123,0
2132,-0.228,-0.952,-0.007,123,0
2133,-0.226,-0.95,-0.01,123,0
2134,-0.227,-0.966,-0.032,123,0
2135,-0.229,-0.983,-0.049,123,0
2136,-0.228,-0.985,-0.047,123,0
2137,-0.225,-0.98,-0.034,123,0
2138,-0.225,-0.975,-0.025,123,0
2139,-0.215,-0.976,-0.029,123,0
2140,-0.191,-0.98,-0.038,123,0
2141,-0.184,-0.992,-0.04,123,0
2142,-0.201,-0.995,-0.035,123,0
2143,-0.219,-0.979,-0.031,123,0
2144,-0.221,-0.963,-0.04,123,0
2145,-0.21,-0.964,-0.045,123,0
2146,-0.204,-0.978,-0.03,123,0
2147,-0.204,-0.987,-0.025,123,0
2148,-0.205,-0.98,-0.039,123,0
2149,-0.205,-0.967,-0.053,123,0
2150,-0.202,-0.967,-0.054,123,0
2151,-0.201,-0.982,-0.044,123,0
2152,-0.203,-0.992,-0.04,123,0
2153,-0.198,-0.986,-0.042,123,0
2154,-0.19,-0.974,-0.044,123,0
2155,-0.19,-0.971,-0.041,123,0
2156,-0.192,-0.977,-0.038,123,0
2157,-0.193,-0.978,-0.038,123,0
2158,-0.194,-0.974,-0.035,123,0
2159,-0.195,-0.974,-0.033,123,0
2160,-0.19,-0.977,-0.039,123,0
2161,-0.179,-0.977,-0.043,123,0
2162,-0.169,-0.979,-0.041,123,0
2163,-0.169,-0.983,-0.035,123,0
2164,-0.177,-0.984,-0.033,123,0
2165,-0.183,-0.983,-0.04,123,0
2166,-0.185,-0.98,-0.048,123,0
2167,-0.18,-0.981,-0.054,123,0
2168,-0.172,-0.984,-0.055,123,0
2169,-0.164,-0.985,-0.053,123,0
2170,-0.169,-0.984,-0.056,123,0
2171,-0.181,-0.982,-0.067,123,0
2172,-0.179,-0.98,-0.075,123,0
2173,-0.166,-0.981,-0.076,123,0
2174,-0.151,-0.983,-0.079,123,0
2175,-0.137,-0.984,-0.086,123,0
2176,-0.121,-0.986,-0.094,123,0
2177,-0.112,-0.981,-0.098,123,0
2178,-0.118,-0.979,-0.09,123,0
2179,-0.138,-0.976,-0.075,123,0
2180,-0.169,-0.977,-0.069,123,0
2181,-0.2,-0.988,-0.069,122,0
2182,-0.216,-0.989,-0.072,122,0
2183,-0.194,-0.976,-0.08,122,0
2184,-0.155,-0.972,-0.088,122,0
2185,-0.141,-0.976,-0.092,122,0
2186,-0.15,-0.98,-0.09,122,0
2187,-0.165,-0.983,-0.085,122,0
2188,-0.177,-0.981,-0.077,122,0
2189,-0.188,-0.971,-0.071,122,0
2190,-0.202,-0.959,-0.073,122,0
2191,-0.216,-0.961,-0.073,122,0
2192,-0.23,-0.973,-0.065,122,0
2193,-0.239,-0.981,-0.058,122,0
2194,-0.235,-0.982,-0.06,122,0
2195,-0.22,-0.976,-0.062,122,0
2196,-0.201,-0.969,-0.062,122,0
2197,-0.179,-0.968,-0.061,122,0
2198,-0.174,-0.97,-0.06,122,0
2199,-0.19,-0.972,-0.063,122,0
2200,-0.218,-0.971,-0.061,122,0
2201,-0.253,-0.968,-0.051,122,0
2202,-0.28,-0.967,-0.047,122,0
2203,-0.292,-0.973,-0.055,122,0
2204,-0.287,-0.976,-0.069,122,0
2205,-0.268,-0.971,-0.077,122,0
2206,-0.248,-0.965,-0.082,122,0
2207,-0.235,-0.969,-0.083,122,0
2208,-0.228,-0.979,-0.069,122,0
2209,-0.212,-0.978,-0.057,122,0
2210,-0.169,-0.962,-0.072,122,0
2211,-0.136,-0.957,-0.088,122,0
2212,-0.159,-0.969,-0.073,122,0
2213,-0.209,-0.979,-0.057,122,0
2214,-0.245,-0.982,-0.063,122,0
2215,-0.264,-0.977,-0.077,122,0
2216,-0.255,-0.969,-0.084,122,0
2217,-0.218,-0.971,-0.077,122,0
2218,-0.178,-0.978,-0.067,122,0
2219,-0.157,-0.982,-0.069,122,0
2220,-0.159,-0.982,-0.078,122,0
2221,-0.174,-0.98,-0.077,121,0
2222,-0.187,-0.981,-0.066,121,0
2223,-0.189,-0.984,-0.061,121,0
2224,-0.184,-0.986,-0.065,121,0
2225,-0.174,-0.985,-0.069,121,0
2226,-0.158,-0.983,-0.068,121,0
2227,-0.141,-0.983,-0.068,121,0
2228,-0.134,-0.982,-0.07,121,0
2229,-0.135,-0.98,-0.069,121,0
2230,-0.145,-0.98,-0.065,121,0
2231,-0.16,-0.983,-0.063,121,0
2232,-0.169,-0.985,-0.063,121,0
2233,-0.17,-0.984,-0.063,121,0
2234,-0.164,-0.982,-0.064,121,0
2235,-0.156,-0.979,-0.066,121,0
2236,-0.15,-0.981,-0.067,121,0
2237,-0.151,-0.984,-0.066,121,0
2238,-0.157,-0.986,-0.064,121,0
2239,-0.16,-0.986,-0.066,121,0
2240,-0.153,-0.982,-0.067,121,0
2241,-0.143,-0.978,-0.066,121,0
2242,-0.14,-0.978,-0.068,121,0
2243,-0.146,-0.98,-0.072,121,0
2244,-0.151,-0.981,-0.074,121,0
2245,-0.146,-0.984,-0.072,121,0
2246,-0.142,-0.985,-0.068,121,0
2247,-0.144,-0.984,-0.066,121,0
2248,-0.147,-0.983,-0.066,121,0
2249,-0.144,-0.984,-0.069,121,0
2250,-0.137,-0.984,-0.07,121,0
2251,-0.132,-0.983,-0.069,121,0
2252,-0.13,-0.984,-0.068,121,0
2253,-0.133,-0.986,-0.066,121,0
2254,-0.135,-0.988,-0.063,121,0
2255,-0.131,-0.987,-0.061,121,0
2256,-0.125,-0.986,-0.059,121,0
2257,-0.124,-0.986,-0.056,121,0
2258,-0.126,-0.986,-0.055,121,0
2259,-0.127,-0.987,-0.056,121,0
2260,-0.126,-0.986,-0.06,121,0
2261,-0.125,-0.985,-0.061,121,0
2262,-0.127,-0.985,-0.06,121,0
2263,-0.131,-0.985,-0.059,121,0
2264,-0.134,-0.986,-0.064,121,0
2265,-0.138,-0.983,-0.066,121,0
2266,-0.15,-0.981,-0.06,121,0
2267,-0.157,-0.981,-0.052,121,0
2268,-0.153,-0.981,-0.052,121,0
2269,-0.143,-0.98,-0.056,121,0
2270,-0.135,-0.98,-0.062,121,0
2271,-0.131,-0.983,-0.064,122,0
2272,-0.135,-0.986,-0.06,122,0
2273,-0.146,-0.986,-0.056,122,0
2274,-0.164,-0.984,-0.057,122,0
2275,-0.175,-0.983,-0.06,122,0
2276,-0.167,-0.982,-0.064,122,0
2277,-0.146,-0.982,-0.067,122,0
2278,-0.131,-0.984,-0.069,122,0
2279,-0.128,-0.986,-0.067,122,0
2280,-0.134,-0.987,-0.062,122,0
2281,-0.14,-0.989,-0.057,122,0
2282,-0.136,-0.987,-0.057,122,0
2283,-0.13,-0.985,-0.058,122,0
2284,-0.129,-0.985,-0.059,122,0
2285,-0.133,-0.985,-0.059,122,0
2286,-0.137,-0.986,-0.057,122,0
2287,-0.14,-0.986,-0.054,122,0
2288,-0.141,-0.985,-0.054,122,0
2289,-0.14,-0.985,-0.058,122,0
2290,-0.138,-0.986,-0.064,122,0
2291,-0.137,-0.985,-0.063,122,0
2292,-0.145,-0.979,-0.054,122,0
2293,-0.16,-0.976,-0.049,122,0
2294,-0.172,-0.978,-0.052,122,0
2295,-0.169,-0.983,-0.058,122,0
2296,-0.155,-0.985,-0.058,122,0
2297,-0.141,-0.982,-0.056,122,0
2298,-0.14,-0.979,-0.056,122,0
2299,-0.15,-0.98,-0.058,122,0
2300,-0.154,-0.979,-0.062,122,0
2301,-0.146,-0.973,-0.067,122,0
2302,-0.136,-0.974,-0.069,122,0
2303,-0.131,-0.985,-0.065,122,0
2304,-0.141,-0.99,-0.06,122,0
2305,-0.161,-0.987,-0.058,122,0
2306,-0.178,-0.987,-0.062,122,0
2307,-0.189,-0.987,-0.063,122,0
2308,-0.189,-0.986,-0.06,122,0
2309,-0.179,-0.982,-0.061,122,0
2310,-0.167,-0.98,-0.069,122,0
2311,-0.162,-0.98,-0.074,123,0
2312,-0.16,-0.98,-0.072,123,0
2313,-0.161,-0.981,-0.066,123,0
2314,-0.166,-0.98,-0.064,123,0
2315,-0.168,-0.979,-0.067,123,0
2316,-0.164,-0.981,-0.068,123,0
2317,-0.163,-0.983,-0.064,123,0
2318,-0.174,-0.986,-0.059,123,0
2319,-0.187,-0.988,-0.051,123,0
2320,-0.184,-0.99,-0.052,123,0
2321,-0.162,-0.987,-0.062,123,0
2322,-0.14,-0.977,-0.07,123,0
2323,-0.129,-0.972,-0.072,123,0
2324,-0.131,-0.975,-0.066,123,0
2325,-0.146,-0.979,-0.062,123,0
2326,-0.161,-0.982,-0.064,123,0
2327,-0.165,-0.982,-0.064,123,0
2328,-0.162,-0.98,-0.058,123,0
2329,-0.166,-0.982,-0.054,123,0
2330,-0.177,-0.982,-0.055,123,0
2331,-0.188,-0.983,-0.057,123,0
2332,-0.195,-0.982,-0.054,123,0
2333,-0.187,-0.981,-0.052,123,0
2334,-0.167,-0.981,-0.059,123,0
2335,-0.152,-0.981,-0.067,123,0
2336,-0.147,-0.98,-0.066,123,0
2337,-0.152,-0.981,-0.06,123,0
2338,-0.165,-0.981,-0.056,123,0
2339,-0.176,-0.98,-0.057,123,0
2340,-0.176,-0.982,-0.062,123,0
2341,-0.167,-0.985,-0.069,123,0
2342,-0.152,-0.986,-0.071,123,0
2343,-0.141,-0.984,-0.068,123,0
2344,-0.142,-0.983,-0.067,123,0
2345,-0.149,-0.981,-0.067,123,0
2346,-0.151,-0.98,-0.066,123,0
2347,-0.144,-0.984,-0.066,123,0
2348,-0.141,-0.989,-0.066,123,0
2349,-0.15,-0.988,-0.065,123,0
2350,-0.159,-0.985,-0.066,123,0
2351,-0.161,-0.984,-0.066,123,0
2352,-0.159,-0.983,-0.065,123,0
2353,-0.159,-0.982,-0.062,123,0
2354,-0.157,-0.982,-0.062,123,0
2355,-0.156,-0.983,-0.062,123,0
2356,-0.157,-0.983,-0.062,123,0
2357,-0.157,-0.981,-0.062,123,0
2358,-0.154,-0.979,-0.06,123,0
2359,-0.155,-0.979,-0.06,123,0
2360,-0.157,-0.979,-0.062,123,0
2361,-0.158,-0.981,-0.061,122,0
2362,-0.159,-0.982,-0.057,122,0
2363,-0.161,-0.981,-0.056,122,0
2364,-0.164,-0.981,-0.058,122,0
2365,-0.166,-0.982,-0.06,122,0
2366,-0.166,-0.984,-0.058,122,0
2367,-0.164,-0.986,-0.056,122,0
2368,-0.165,-0.985,-0.054,122,0
2369,-0.166,-0.98,-0.053,122,0
2370,-0.166,-0.979,-0.056,122,0
2371,-0.163,-0.983,-0.057,122,0
2372,-0.16,-0.984,-0.055,122,0
2373,-0.16,-0.983,-0.053,122,0
2374,-0.167,-0.982,-0.053,122,0
2375,-0.167,-0.982,-0.055,122,0
2376,-0.156,-0.982,-0.057,122,0
2377,-0.148,-0.982,-0.054,122,0
2378,-0.152,-0.982,-0.051,122,0
2379,-0.165,-0.982,-0.052,122,0
2380,-0.171,-0.984,-0.053,122,0
2381,-0.167,-0.984,-0.051,122,0
2382,-0.16,-0.982,-0.049,122,0
2383,-0.156,-0.98,-0.051,122,0
2384,-0.152,-0.981,-0.053,122,0
2385,-0.155,-0.983,-0.053,122,0
2386,-0.163,-0.984,-0.049,122,0
2387,-0.173,-0.984,-0.045,122,0
2388,-0.178,-0.982,-0.044,122,0
2389,-0.18,-0.98,-0.047,122,0
2390,-0.18,-0.981,-0.05,122,0
2391,-0.18,-0.983,-0.048,123,0
2392,-0.182,-0.983,-0.043,123,0
2393,-0.186,-0.981,-0.043,123,0
2394,-0.188,-0.98,-0.046,123,0
2395,-0.184,-0.981,-0.05,123,0
2396,-0.181,-0.984,-0.053,123,0
2397,-0.175,-0.985,-0.051,123,0
2398,-0.163,-0.98,-0.043,123,0
2399,-0.156,-0.973,-0.039,123,0
2400,-0.162,-0.972,-0.042,123,0
2401,-0.174,-0.977,-0.045,123,0
2402,-0.182,-0.981,-0.044,123,0
2403,-0.185,-0.983,-0.042,123,0
2404,-0.183,-0.983,-0.044,123,0
2405,-0.181,-0.982,-0.044,123,0
2406,-0.178,-0.98,-0.046,123,0
2407,-0.176,-0.98,-0.05,123,0
2408,-0.175,-0.982,-0.051,123,0
2409,-0.174,-0.983,-0.049,123,0
2410,-0.171,-0.982,-0.049,123,0
2411,-0.172,-0.981,-0.048,123,0
2412,-0.174,-0.981,-0.046,123,0
2413,-0.173,-0.984,-0.049,123,0
2414,-0.171,-0.99,-0.05,123,0
2415,-0.18,-0.985,-0.046,123,0
2416,-0.187,-0.969,-0.051,123,0
2417,-0.184,-0.965,-0.057,123,0
2418,-0.179,-0.971,-0.053,123,0
2419,-0.177,-0.976,-0.046,123,0
2420,-0.178,-0.981,-0.045,123,0
2421,-0.182,-0.984,-0.049,123,0
2422,-0.181,-0.984,-0.05,123,0
2423,-0.177,-0.983,-0.049,123,0
2424,-0.179,-0.983,-0.05,123,0
2425,-0.185,-0.984,-0.05,123,0
2426,-0.186,-0.983,-0.05,123,0
2427,-0.18,-0.982,-0.051,123,0
2428,-0.177,-0.982,-0.052,123,0
2429,-0.179,-0.982,-0.052,123,0
2430,-0.181,-0.983,-0.053,123,0
2431,-0.182,-0.982,-0.054,123,0
2432,-0.181,-0.98,-0.052,123,0
2433,-0.184,-0.98,-0.05,123,0
2434,-0.186,-0.981,-0.051,123,0
2435,-0.185,-0.982,-0.051,123,0
2436,-0.184,-0.982,-0.049,123,0
2437,-0.183,-0.98,-0.05,123,0
2438,-0.182,-0.98,-0.051,123,0
2439,-0.183,-0.981,-0.049,123,0
2440,-0.185,-0.983,-0.05,123,0
2441,-0.176,-0.983,-0.054,124,0
2442,-0.16,-0.983,-0.054,124,0
2443,-0.16,-0.982,-0.048,124,0
2444,-0.177,-0.981,-0.047,124,0
2445,-0.191,-0.982,-0.048,124,0
2446,-0.191,-0.982,-0.051,124,0
2447,-0.178,-0.98,-0.055,124,0
2448,-0.165,-0.979,-0.063,124,0
2449,-0.154,-0.979,-0.071,124,0
2450,-0.154,-0.979,-0.069,124,0
2451,-0.169,-0.981,-0.065,124,0
2452,-0.177,-0.981,-0.064,124,0
2453,-0.171,-0.98,-0.064,124,0
2454,-0.166,-0.981,-0.063,124,0
2455,-0.164,-0.985,-0.065,124,0
2456,-0.163,-0.99,-0.064,124,0
2457,-0.172,-0.99,-0.057,124,0
2458,-0.183,-0.983,-0.057,124,0
2459,-0.172,-0.976,-0.068,124,0
2460,-0.149,-0.977,-0.071,124,0
2461,-0.135,-0.98,-0.062,124,0
2462,-0.146,-0.982,-0.056,124,0
2463,-0.175,-0.982,-0.058,124,0
2464,-0.19,-0.983,-0.063,124,0
2465,-0.178,-0.982,-0.065,124,0
2466,-0.156,-0.981,-0.068,124,0
2467,-0.147,-0.979,-0.072,124,0
2468,-0.154,-0.979,-0.075,124,0
2469,-0.162,-0.98,-0.074,124,0
2470,-0.164,-0.981,-0.071,124,0
2471,-0.159,-0.982,-0.07,124,0
2472,-0.154,-0.981,-0.069,124,0
2473,-0.157,-0.981,-0.069,124,0
2474,-0.169,-0.983,-0.065,124,0
2475,-0.176,-0.985,-0.057,124,0
2476,-0.175,-0.985,-0.051,124,0
2477,-0.18,-0.985,-0.054,124,0
2478,-0.188,-0.98,-0.07,124,0
2479,-0.18,-0.977,-0.08,124,0
2480,-0.16,-0.98,-0.077,124,0
2481,-0.145,-0.984,-0.07,124,0
2482,-0.144,-0.985,-0.071,124,0
2483,-0.156,-0.983,-0.077,124,0
2484,-0.163,-0.981,-0.076,124,0
2485,-0.158,-0.982,-0.066,124,0
2486,-0.154,-0.984,-0.061,124,0
2487,-0.153,-0.984,-0.064,124,0
2488,-0.157,-0.984,-0.067,124,0
2489,-0.164,-0.983,-0.063,124,0
2490,-0.171,-0.981,-0.062,124,0
2491,-0.177,-0.979,-0.068,125,0
2492,-0.176,-0.979,-0.071,125,0
2493,-0.167,-0.979,-0.068,125,0
2494,-0.159,-0.979,-0.067,125,0
2495,-0.157,-0.98,-0.07,125,0
2496,-0.161,-0.983,-0.068,125,0
2497,-0.165,-0.984,-0.062,125,0
2498,-0.166,-0.983,-0.06,125,0
2499,-0.165,-0.982,-0.064,125,0
2500,-0.166,-0.982,-0.066,125,0
2501,-0.166,-0.981,-0.066,125,0
2502,-0.167,-0.981,-0.068,125,0
2503,-0.166,-0.98,-0.071,125,0
2504,-0.166,-0.98,-0.068,125,0
2505,-0.174,-0.982,-0.062,125,0
2506,-0.182,-0.983,-0.062,125,0
2507,-0.178,-0.981,-0.064,125,0
2508,-0.17,-0.982,-0.064,125,0
2509,-0.169,-0.983,-0.064,125,0
2510,-0.171,-0.983,-0.067,125,0
2511,-0.171,-0.982,-0.068,125,0
2512,-0.167,-0.982,-0.066,125,0
2513,-0.165,-0.983,-0.066,125,0
2514,-0.165,-0.985,-0.066,125,0
2515,-0.164,-0.984,-0.066,125,0
2516,-0.161,-0.984,-0.066,125,0
2517,-0.157,-0.983,-0.068,125,0
2518,-0.154,-0.98,-0.069,125,0
2519,-0.154,-0.979,-0.067,125,0
2520,-0.156,-0.981,-0.065,125,0
2521,-0.156,-0.983,-0.065,125,0
2522,-0.156,-0.985,-0.063,125,0
2523,-0.158,-0.983,-0.063,125,0
2524,-0.16,-0.98,-0.065,125,0
2525,-0.164,-0.981,-0.065,125,0
2526,-0.169,-0.982,-0.063,125,0
2527,-0.169,-0.983,-0.06,125,0
2528,-0.166,-0.983,-0.06,125,0
2529,-0.164,-0.983,-0.06,125,0
2530,-0.161,-0.983,-0.061,125,0
2531,-0.154,-0.986,-0.063,125,0
2532,-0.144,-0.989,-0.067,125,0
2533,-0.139,-0.986,-0.063,125,0
2534,-0.149,-0.976,-0.056,125,0
2535,-0.164,-0.97,-0.056,125,0
2536,-0.174,-0.971,-0.059,125,0
2537,-0.175,-0.976,-0.058,125,0
2538,-0.162,-0.98,-0.057,125,0
2539,-0.148,-0.983,-0.057,125,0
2540,-0.146,-0.983,-0.056,125,0
2541,-0.152,-0.985,-0.058,125,0
2542,-0.152,-0.988,-0.057,125,0
2543,-0.154,-0.984,-0.052,125,0
2544,-0.169,-0.977,-0.051,125,0
2545,-0.177,-0.976,-0.057,125,0
2546,-0.163,-0.979,-0.062,125,0
2547,-0.145,-0.983,-0.058,125,0
2548,-0.145,-0.984,-0.053,125,0
2549,-0.162,-0.983,-0.052,125,0
2550,-0.175,-0.981,-0.052,125,0
2551,-0.173,-0.982,-0.051,125,0
2552,-0.165,-0.984,-0.05,125,0
2553,-0.157,-0.984,-0.054,125,0
2554,-0.152,-0.983,-0.059,125,0
2555,-0.152,-0.982,-0.057,125,0
2556,-0.156,-0.982,-0.053,125,0
2557,-0.161,-0.983,-0.052,125,0
2558,-0.165,-0.983,-0.052,125,0
2559,-0.167,-0.984,-0.051,125,0
2560,-0.168,-0.984,-0.053,125,0
2561,-0.169,-0.981,-0.052,124,0
2562,-0.172,-0.98,-0.052,124,0
2563,-0.174,-0.981,-0.053,124,0
2564,-0.172,-0.982,-0.054,124,0
2565,-0.171,-0.983,-0.053,124,0
2566,-0.169,-0.984,-0.052,124,0
2567,-0.169,-0.984,-0.051,124,0
2568,-0.171,-0.984,-0.052,124,0
2569,-0.17,-0.983,-0.053,124,0
2570,-0.163,-0.983,-0.053,124,0
2571,-0.157,-0.985,-0.052,124,0
2572,-0.162,-0.984,-0.051,124,0
2573,-0.167,-0.979,-0.054,124,0
2574,-0.158,-0.977,-0.059,124,0
2575,-0.144,-0.979,-0.063,124,0
2576,-0.135,-0.981,-0.063,124,0
2577,-0.141,-0.982,-0.061,124,0
2578,-0.154,-0.981,-0.059,124,0
2579,-0.162,-0.979,-0.06,124,0
2580,-0.169,-0.982,-0.059,124,0
2581,-0.18,-0.987,-0.053,124,0
2582,-0.184,-0.988,-0.051,124,0
2583,-0.177,-0.985,-0.058,124,0
2584,-0.162,-0.983,-0.066,124,0
2585,-0.147,-0.984,-0.068,124,0
2586,-0.142,-0.982,-0.067,124,0
2587,-0.15,-0.979,-0.068,124,0
2588,-0.163,-0.981,-0.069,124,0
2589,-0.171,-0.985,-0.065,124,0
2590,-0.172,-0.984,-0.06,124,0
2591,-0.166,-0.98,-0.063,124,0
2592,-0.159,-0.979,-0.07,124,0
2593,-0.158,-0.981,-0.068,124,0
2594,-0.166,-0.983,-0.061,124,0
2595,-0.174,-0.982,-0.061,124,0
2596,-0.178,-0.982,-0.065,124,0
2597,-0.179,-0.983,-0.063,124,0
2598,-0.175,-0.983,-0.06,124,0
2599,-0.17,-0.981,-0.062,124,0
2600,-0.166,-0.98,-0.066,124,0
2601,-0.163,-0.98,-0.066,124,0
2602,-0.157,-0.982,-0.064,124,0
2603,-0.153,-0.985,-0.065,124,0
2604,-0.156,-0.986,-0.063,124,0
2605,-0.164,-0.985,-0.059,124,0
2606,-0.168,-0.983,-0.06,124,0
2607,-0.165,-0.982,-0.063,124,0
2608,-0.157,-0.983,-0.063,124,0
2609,-0.155,-0.986,-0.062,124,0
2610,-0.161,-0.984,-0.061,124,0
2611,-0.165,-0.981,-0.063,124,0
2612,-0.165,-0.98,-0.065,124,0
2613,-0.164,-0.982,-0.062,124,0
2614,-0.165,-0.982,-0.058,124,0
2615,-0.167,-0.977,-0.058,124,0
2616,-0.169,-0.975,-0.062,124,0
2617,-0.163,-0.981,-0.064,124,0
2618,-0.149,-0.986,-0.059,124,0
2619,-0.147,-0.985,-0.053,124,0
2620,-0.165,-0.984,-0.054,124,0
2621,-0.187,-0.985,-0.055,124,0
2622,-0.187,-0.986,-0.053,124,0
2623,-0.172,-0.986,-0.052,124,0
2624,-0.17,-0.986,-0.051,124,0
2625,-0.166,-0.979,-0.057,124,0
2626,-0.147,-0.972,-0.073,124,0
2627,-0.137,-0.973,-0.075,124,0
2628,-0.154,-0.978,-0.056,124,0
2629,-0.186,-0.981,-0.044,124,0
2630,-0.208,-0.978,-0.049,124,0
2631,-0.209,-0.978,-0.052,124,0
2632,-0.192,-0.983,-0.048,124,0
2633,-0.176,-0.981,-0.048,124,0
2634,-0.172,-0.972,-0.057,124,0
2635,-0.179,-0.975,-0.063,124,0
2636,-0.195,-0.982,-0.055,124,0
2637,-0.211,-0.982,-0.044,124,0
2638,-0.21,-0.977,-0.046,124,0
2639,-0.191,-0.976,-0.053,124,0
2640,-0.167,-0.979,-0.058,124,0
2641,-0.159,-0.982,-0.057,124,0
2642,-0.173,-0.984,-0.05,124,0
2643,-0.194,-0.982,-0.043,124,0
2644,-0.205,-0.976,-0.045,124,0
2645,-0.19,-0.972,-0.06,124,0
2646,-0.161,-0.976,-0.07,124,0
2647,-0.144,-0.98,-0.064,124,0
2648,-0.156,-0.981,-0.052,124,0
2649,-0.187,-0.983,-0.046,124,0
2650,-0.205,-0.983,-0.049,124,0
2651,-0.198,-0.982,-0.053,124,0
2652,-0.183,-0.984,-0.054,124,0
2653,-0.178,-0.983,-0.055,124,0
2654,-0.184,-0.98,-0.059,124,0
2655,-0.187,-0.978,-0.062,124,0
2656,-0.186,-0.979,-0.059,124,0
2657,-0.188,-0.982,-0.055,124,0
2658,-0.194,-0.984,-0.054,124,0
2659,-0.192,-0.983,-0.055,124,0
2660,-0.188,-0.981,-0.058,124,0
2661,-0.19,-0.981,-0.06,124,0
2662,-0.192,-0.978,-0.059,124,0
2663,-0.191,-0.975,-0.058,124,0
2664,-0.193,-0.978,-0.059,124,0
2665,-0.197,-0.981,-0.056,124,0
2666,-0.197,-0.982,-0.053,124,0
2667,-0.189,-0.98,-0.053,124,0
2668,-0.184,-0.98,-0.054,124,0
2669,-0.182,-0.98,-0.055,124,0
2670,-0.183,-0.981,-0.055,124,0
2671,-0.186,-0.981,-0.054,124,0
2672,-0.189,-0.982,-0.054,124,0
2673,-0.19,-0.982,-0.055,124,0
2674,-0.187,-0.982,-0.056,124,0
2675,-0.181,-0.981,-0.057,124,0
2676,-0.177,-0.981,-0.059,124,0
2677,-0.176,-0.981,-0.061,124,0
2678,-0.178,-0.981,-0.061,124,0
2679,-0.177,-0.982,-0.062,124,0
2680,-0.172,-0.982,-0.062,124,0
2681,-0.173,-0.981,-0.058,124,0
2682,-0.179,-0.98,-0.059,124,0
2683,-0.18,-0.981,-0.062,124,0
2684,-0.173,-0.983,-0.061,124,0
2685,-0.164,-0.983,-0.06,124,0
2686,-0.161,-0.983,-0.062,124,0
2687,-0.165,-0.981,-0.064,124,0
2688,-0.168,-0.981,-0.062,124,0
2689,-0.172,-0.98,-0.059,124,0
2690,-0.173,-0.979,-0.061,124,0
2691,-0.172,-0.979,-0.062,125,0
2692,-0.171,-0.98,-0.061,125,0
2693,-0.174,-0.981,-0.06,125,0
2694,-0.176,-0.981,-0.061,125,0
2695,-0.173,-0.981,-0.062,125,0
2696,-0.17,-0.982,-0.062,125,0
2697,-0.168,-0.983,-0.063,125,0
2698,-0.168,-0.982,-0.063,125,0
2699,-0.171,-0.982,-0.063,125,0
2700,-0.172,-0.981,-0.065,125,0
2701,-0.163,-0.98,-0.069,125,0
2702,-0.151,-0.984,-0.072,125,0
2703,-0.157,-0.987,-0.069,125,0
2704,-0.171,-0.985,-0.065,125,0
2705,-0.17,-0.984,-0.064,125,0
2706,-0.156,-0.98,-0.07,125,0
2707,-0.137,-0.977,-0.078,125,0
2708,-0.129,-0.979,-0.076,125,0
2709,-0.137,-0.981,-0.065,125,0
2710,-0.16,-0.983,-0.064,125,0
2711,-0.189,-0.975,-0.079,125,0
2712,-0.215,-0.97,-0.082,125,0
2713,-0.211,-0.98,-0.058,125,0
2714,-0.177,-0.982,-0.048,125,0
2715,-0.163,-0.98,-0.058,125,0
2716,-0.187,-0.979,-0.063,125,0
2717,-0.218,-0.978,-0.06,125,0
2718,-0.235,-0.976,-0.06,125,0
2719,-0.233,-0.974,-0.064,125,0
2720,-0.215,-0.973,-0.071,125,0
2721,-0.196,-0.974,-0.074,125,0
2722,-0.191,-0.978,-0.073,125,0
2723,-0.198,-0.98,-0.069,125,0
2724,-0.205,-0.982,-0.066,125,0
2725,-0.205,-0.982,-0.068,125,0
2726,-0.202,-0.98,-0.068,125,0
2727,-0.208,-0.976,-0.065,125,0
2728,-0.224,-0.966,-0.071,125,0
2729,-0.228,-0.957,-0.09,125,0
2730,-0.204,-0.959,-0.106,125,0
2731,-0.164,-0.97,-0.094,125,0
2732,-0.14,-0.979,-0.069,125,0
2733,-0.156,-0.984,-0.057,125,0
2734,-0.192,-0.986,-0.067,125,0
2735,-0.211,-0.984,-0.082,125,0
2736,-0.2,-0.983,-0.081,125,0
2737,-0.18,-0.984,-0.072,125,0
2738,-0.18,-0.985,-0.07,125,0
2739,-0.193,-0.983,-0.074,125,0
2740,-0.2,-0.98,-0.075,125,0
2741,-0.196,-0.981,-0.075,125,0
2742,-0.187,-0.979,-0.074,125,0
2743,-0.185,-0.97,-0.079,125,0
2744,-0.191,-0.965,-0.084,125,0
2745,-0.196,-0.968,-0.083,125,0
2746,-0.195,-0.977,-0.08,125,0
2747,-0.195,-0.982,-0.079,125,0
2748,-0.2,-0.984,-0.077,125,0
2749,-0.206,-0.984,-0.073,125,0
2750,-0.208,-0.981,-0.074,125,0
2751,-0.205,-0.969,-0.081,125,0
2752,-0.191,-0.971,-0.09,125,0
2753,-0.166,-0.981,-0.092,125,0
2754,-0.145,-0.982,-0.089,125,0
2755,-0.149,-0.981,-0.088,125,0
2756,-0.169,-0.981,-0.09,125,0
2757,-0.183,-0.982,-0.091,125,0
2758,-0.175,-0.984,-0.086,125,0
2759,-0.154,-0.983,-0.081,125,0
2760,-0.137,-0.985,-0.083,125,0
2761,-0.13,-0.987,-0.091,125,0
2762,-0.131,-0.988,-0.092,125,0
2763,-0.132,-0.987,-0.089,125,0
2764,-0.128,-0.987,-0.086,125,0
2765,-0.123,-0.988,-0.088,125,0
2766,-0.118,-0.988,-0.091,125,0
2767,-0.118,-0.986,-0.085,125,0
2768,-0.118,-0.985,-0.077,125,0
2769,-0.118,-0.986,-0.072,125,0
2770,-0.118,-0.987,-0.07,125,0
2771,-0.119,-0.986,-0.066,125,0
2772,-0.12,-0.985,-0.06,125,0
2773,-0.119,-0.985,-0.058,125,0
2774,-0.119,-0.984,-0.059,125,0
2775,-0.121,-0.979,-0.06,125,0
2776,-0.122,-0.975,-0.06,125,0
2777,-0.124,-0.976,-0.054,125,0
2778,-0.127,-0.979,-0.045,125,0
2779,-0.127,-0.982,-0.036,125,0
2780,-0.127,-0.984,-0.032,125,0
2781,-0.126,-0.983,-0.028,125,0
2782,-0.13,-0.982,-0.026,125,0
2783,-0.143,-0.979,-0.032,125,0
2784,-0.164,-0.973,-0.04,125,0
2785,-0.187,-0.977,-0.035,125,0
2786,-0.197,-0.985,-0.024,125,0
2787,-0.183,-0.988,-0.025,125,0
2788,-0.156,-0.988,-0.036,125,0
2789,-0.135,-0.986,-0.044,125,0
2790,-0.126,-0.985,-0.036,125,0
2791,-0.129,-0.985,-0.028,125,0
2792,-0.146,-0.981,-0.038,125,0
2793,-0.164,-0.974,-0.052,125,0
2794,-0.177,-0.974,-0.053,125,0
2795,-0.183,-0.974,-0.042,125,0
2796,-0.19,-0.974,-0.037,125,0
2797,-0.203,-0.978,-0.039,125,0
2798,-0.216,-0.979,-0.041,125,0
2799,-0.225,-0.977,-0.042,125,0
2800,-0.226,-0.977,-0.041,125,0
2801,-0.225,-0.977,-0.04,125,0
2802,-0.224,-0.976,-0.04,125,0
2803,-0.226,-0.977,-0.042,125,0
2804,-0.23,-0.977,-0.042,125,0
2805,-0.237,-0.976,-0.04,125,0
2806,-0.242,-0.974,-0.039,125,0
2807,-0.243,-0.972,-0.04,125,0
2808,-0.243,-0.971,-0.042,125,0
2809,-0.242,-0.971,-0.044,125,0
2810,-0.239,-0.97,-0.043,125,0
2811,-0.234,-0.965,-0.042,125,0
2812,-0.23,-0.967,-0.045,125,0
2813,-0.226,-0.968,-0.05,125,0
2814,-0.217,-0.968,-0.053,125,0
2815,-0.218,-0.972,-0.05,125,0
2816,-0.235,-0.977,-0.044,125,0
2817,-0.245,-0.98,-0.045,125,0
2818,-0.24,-0.98,-0.05,125,0
2819,-0.227,-0.979,-0.05,125,0
2820,-0.216,-0.976,-0.047,125,0
2821,-0.211,-0.969,-0.051,125,0
2822,-0.211,-0.97,-0.059,125,0
2823,-0.216,-0.977,-0.064,125,0
2824,-0.214,-0.982,-0.063,125,0
2825,-0.204,-0.98,-0.059,125,0
2826,-0.196,-0.973,-0.058,125,0
2827,-0.194,-0.972,-0.06,125,0
2828,-0.195,-0.977,-0.063,125,0
2829,-0.194,-0.978,-0.062,125,0
2830,-0.191,-0.977,-0.059,125,0
2831,-0.191,-0.977,-0.061,125,0
2832,-0.193,-0.977,-0.063,125,0
2833,-0.193,-0.979,-0.059,125,0
2834,-0.195,-0.98,-0.056,125,0
2835,-0.199,-0.981,-0.057,125,0
2836,-0.201,-0.98,-0.059,125,0
2837,-0.2,-0.979,-0.058,125,0
2838,-0.201,-0.979,-0.056,125,0
2839,-0.203,-0.98,-0.056,125,0
2840,-0.204,-0.982,-0.057,125,0
2841,-0.205,-0.981,-0.055,125,0
2842,-0.209,-0.977,-0.053,125,0
2843,-0.213,-0.977,-0.055,125,0
2844,-0.21,-0.978,-0.056,125,0
2845,-0.206,-0.978,-0.054,125,0
2846,-0.203,-0.978,-0.053,125,0
2847,-0.204,-0.978,-0.055,125,0
2848,-0.205,-0.978,-0.056,125,0
2849,-0.205,-0.978,-0.056,125,0
2850,-0.204,-0.979,-0.057,125,0
2851,-0.204,-0.979,-0.058,125,0
2852,-0.204,-0.979,-0.056,125,0
2853,-0.205,-0.979,-0.055,125,0
2854,-0.204,-0.979,-0.057,125,0
2855,-0.204,-0.98,-0.058,125,0
2856,-0.203,-0.981,-0.058,125,0
2857,-0.199,-0.979,-0.059,125,0
2858,-0.196,-0.978,-0.061,125,0
2859,-0.196,-0.979,-0.062,125,0
2860,-0.197,-0.98,-0.06,125,0
2861,-0.199,-0.98,-0.059,125,0
2862,-0.201,-0.979,-0.06,125,0
2863,-0.202,-0.979,-0.06,125,0
2864,-0.201,-0.981,-0.06,125,0
2865,-0.203,-0.981,-0.058,125,0
2866,-0.212,-0.978,-0.054,125,0
2867,-0.225,-0.975,-0.052,125,0
2868,-0.223,-0.976,-0.055,125,0
2869,-0.202,-0.977,-0.06,125,0
2870,-0.178,-0.98,-0.06,125,0
2871,-0.162,-0.979,-0.061,125,0
2872,-0.163,-0.974,-0.06,125,0
2873,-0.183,-0.97,-0.058,125,0
2874,-0.208,-0.971,-0.057,125,0
2875,-0.225,-0.974,-0.055,125,0
2876,-0.232,-0.978,-0.053,125,0
2877,-0.227,-0.979,-0.055,125,0
2878,-0.217,-0.979,-0.056,125,0
2879,-0.216,-0.977,-0.056,125,0
2880,-0.221,-0.976,-0.056,125,0
2881,-0.225,-0.977,-0.057,125,0
2882,-0.221,-0.976,-0.058,125,0
2883,-0.214,-0.976,-0.059,125,0
2884,-0.209,-0.978,-0.06,125,0
2885,-0.21,-0.979,-0.058,125,0
2886,-0.211,-0.976,-0.057,125,0
2887,-0.211,-0.975,-0.058,125,0
2888,-0.212,-0.976,-0.059,125,0
2889,-0.213,-0.978,-0.057,125,0
2890,-0.212,-0.978,-0.055,125,0
2891,-0.212,-0.978,-0.055,125,0
2892,-0.213,-0.977,-0.057,125,0
2893,-0.213,-0.977,-0.057,125,0
2894,-0.213,-0.978,-0.057,125,0
2895,-0.214,-0.979,-0.055,125,0
2896,-0.214,-0.977,-0.053,125,0
2897,-0.212,-0.975,-0.053,125,0
2898,-0.21,-0.977,-0.055,125,0
2899,-0.209,-0.979,-0.055,125,0
2900,-0.208,-0.978,-0.055,125,0
2901,-0.204,-0.975,-0.056,124,0
2902,-0.205,-0.974,-0.055,124,0
2903,-0.209,-0.975,-0.054,124,0
2904,-0.209,-0.976,-0.054,124,0
2905,-0.208,-0.977,-0.052,124,0
2906,-0.209,-0.976,-0.052,124,0
2907,-0.21,-0.975,-0.053,124,0
2908,-0.211,-0.977,-0.053,124,0
2909,-0.211,-0.98,-0.054,124,0
2910,-0.209,-0.979,-0.052,124,0
2911,-0.208,-0.976,-0.05,124,0
2912,-0.208,-0.977,-0.051,124,0
2913,-0.208,-0.98,-0.052,124,0
2914,-0.207,-0.981,-0.052,124,0
2915,-0.205,-0.979,-0.051,124,0
2916,-0.207,-0.979,-0.052,124,0
2917,-0.21,-0.976,-0.054,124,0
2918,-0.21,-0.975,-0.054,124,0
2919,-0.208,-0.976,-0.053,124,0
2920,-0.206,-0.977,-0.051,124,0
2921,-0.207,-0.977,-0.051,124,0
2922,-0.208,-0.977,-0.052,124,0
2923,-0.209,-0.978,-0.052,124,0
2924,-0.209,-0.979,-0.052,124,0
2925,-0.207,-0.979,-0.051,124,0
2926,-0.205,-0.98,-0.05,124,0
2927,-0.204,-0.981,-0.05,124,0
2928,-0.203,-0.98,-0.052,124,0
2929,-0.204,-0.976,-0.053,124,0
2930,-0.21,-0.976,-0.052,124,0
2931,-0.214,-0.976,-0.054,124,0
2932,-0.21,-0.972,-0.057,124,0
2933,-0.201,-0.969,-0.061,124,0
2934,-0.197,-0.974,-0.058,124,0
2935,-0.2,-0.984,-0.049,124,0
2936,-0.203,-0.986,-0.048,124,0
2937,-0.206,-0.978,-0.056,124,0
2938,-0.205,-0.974,-0.059,124,0
2939,-0.196,-0.976,-0.055,124,0
2940,-0.186,-0.978,-0.055,124,0
2941,-0.186,-0.979,-0.058,124,0
2942,-0.189,-0.979,-0.061,124,0
2943,-0.192,-0.979,-0.06,124,0
2944,-0.197,-0.98,-0.056,124,0
2945,-0.2,-0.98,-0.058,124,0
2946,-0.199,-0.981,-0.059,124,0
2947,-0.196,-0.981,-0.057,124,0
2948,-0.197,-0.979,-0.056,124,0
2949,-0.202,-0.979,-0.057,124,0
2950,-0.205,-0.98,-0.056,124,0
2951,-0.203,-0.981,-0.054,124,0
2952,-0.2,-0.981,-0.054,124,0
2953,-0.198,-0.98,-0.054,124,0
2954,-0.199,-0.981,-0.055,124,0
2955,-0.199,-0.982,-0.057,124,0
2956,-0.197,-0.98,-0.055,124,0
2957,-0.196,-0.977,-0.055,124,0
2958,-0.198,-0.979,-0.057,124,0
2959,-0.199,-0.98,-0.057,124,0
2960,-0.198,-0.981,-0.055,124,0
2961,-0.197,-0.98,-0.054,124,0
2962,-0.198,-0.979,-0.054,124,0
2963,-0.199,-0.98,-0.055,124,0
2964,-0.198,-0.982,-0.056,124,0
2965,-0.195,-0.981,-0.057,124,0
2966,-0.193,-0.98,-0.057,124,0
2967,-0.193,-0.979,-0.056,124,0
2968,-0.195,-0.981,-0.057,124,0
2969,-0.196,-0.982,-0.058,124,0
2970,-0.195,-0.98,-0.057,124,0
2971,-0.196,-0.978,-0.055,124,0
2972,-0.197,-0.979,-0.056,124,0
2973,-0.197,-0.98,-0.057,124,0
2974,-0.196,-0.981,-0.055,124,0