Sample Count,Acceleration X (g),Acceleration Y (g),Acceleration Z (g),Heart Rate (bpm),Activity
0,-0.297,-0.953,0.199,60,1
1,-0.297,-0.934,0.197,60,1
2,-0.294,-0.91,0.183,60,1
3,-0.275,-0.933,0.143,60,1
4,-0.255,-1.055,0.089,60,1
5,-0.249,-1.176,0.02,60,1
6,-0.246,-1.194,-0.039,60,1
7,-0.229,-1.15,-0.052,60,1
8,-0.201,-1.084,-0.047,60,1
9,-0.185,-1.006,-0.047,60,1
10,-0.184,-0.931,-0.041,60,1
11,-0.188,-0.877,-0.028,60,1
12,-0.19,-0.839,-0.017,60,1
13,-0.193,-0.817,-0.012,60,1
14,-0.204,-0.796,-0.001,60,1
15,-0.222,-0.791,0.013,60,1
16,-0.242,-0.835,0.027,60,1
17,-0.252,-0.907,0.036,60,1
18,-0.248,-0.98,0.038,60,1
19,-0.243,-1.053,0.038,60,1
20,-0.242,-1.145,0.031,60,1
21,-0.248,-1.208,0.027,60,1
22,-0.262,-1.144,0.061,60,1
23,-0.262,-1.144,0.061,60,1
24,-0.262,-1.144,0.061,60,1
25,-0.261,-1.026,0.102,60,1
26,-0.227,-0.977,0.097,60,1
27,-0.18,-0.979,0.07,60,1
28,-0.161,-0.959,0.059,60,1
29,-0.167,-0.925,0.075,60,1
30,-0.163,-0.903,0.093,60,1
31,-0.145,-0.889,0.103,60,1
32,-0.139,-0.896,0.114,60,1
33,-0.166,-0.901,0.127,60,1
34,-0.207,-0.878,0.154,60,1
35,-0.24,-0.875,0.187,60,1
36,-0.302,-0.917,0.203,60,1
37,-0.387,-0.977,0.224,60,1
38,-0.439,-1.027,0.268,60,1
39,-0.45,-1.06,0.301,60,1
40,-0.45,-1.08,0.282,60,1
41,-0.452,-1.051,0.207,60,1
42,-0.438,-0.98,0.137,60,1
43,-0.41,-0.931,0.1,60,1
44,-0.39,-0.908,0.063,60,1
45,-0.393,-0.886,0.029,60,1
46,-0.406,-0.847,0.01,60,1
47,-0.427,-0.799,0.024,60,1
48,-0.424,-0.78,0.083,60,1
49,-0.394,-0.776,0.117,60,1
50,-0.373,-0.758,0.106,60,1
51,-0.343,-0.744,0.108,60,1
52,-0.297,-0.755,0.115,60,1
53,-0.223,-0.791,0.093,60,1
54,-0.152,-0.864,0.051,60,1
55,-0.144,-1.003,0.024,60,1
56,-0.182,-1.217,-0.007,60,1
57,-0.27,-1.33,-0.006,60,1
58,-0.367,-1.245,0.102,60,1
59,-0.356,-1.129,0.17,59,1
60,-0.265,-1.104,0.094,59,1
61,-0.212,-1.113,0.01,59,1
62,-0.215,-1.058,-0.006,59,1
63,-0.235,-0.966,0.012,59,1
64,-0.253,-0.908,0.041,59,1
65,-0.267,-0.901,0.065,59,1
66,-0.282,-0.915,0.067,59,1
67,-0.405,-0.955,0.084,59,1
68,-0.524,-1.008,0.174,59,1
69,-0.537,-1.023,0.293,59,1
70,-0.542,-0.967,0.378,59,1
71,-0.504,-0.852,0.415,59,1
72,-0.432,-0.785,0.396,59,1
73,-0.446,-0.837,0.341,59,1
74,-0.513,-0.901,0.291,59,1
75,-0.493,-0.839,0.272,59,1
76,-0.476,-0.725,0.264,59,1
77,-0.555,-0.672,0.275,59,1
78,-0.634,-0.714,0.299,59,1
79,-0.723,-0.749,0.274,59,1
80,-0.814,-0.691,0.244,59,1
81,-0.813,-0.629,0.251,59,1
82,-0.742,-0.582,0.222,59,1
83,-0.656,-0.539,0.164,59,1
84,-0.566,-0.525,0.129,59,1
85,-0.491,-0.535,0.1,59,1
86,-0.468,-0.57,0.072,59,1
87,-0.468,-0.601,0.075,59,1
88,-0.46,-0.624,0.142,59,1
89,-0.39,-0.691,0.186,59,1
90,-0.258,-0.844,0.089,59,1
91,-0.17,-1.077,0.005,59,1
92,-0.178,-1.312,0.014,59,1
93,-0.262,-1.485,-0.034,59,1
94,-0.355,-1.591,-0.128,59,1
95,-0.412,-1.538,-0.156,59,1
96,-0.423,-1.338,-0.172,59,1
97,-0.441,-1.163,-0.172,59,1
98,-0.45,-1.04,-0.111,59,1
99,-0.427,-0.931,-0.051,59,1
100,-0.427,-0.856,-0.004,59,1
101,-0.445,-0.81,0.031,59,1
102,-0.479,-0.777,0.058,59,1
103,-0.507,-0.78,0.072,59,1
104,-0.512,-0.833,0.043,59,1
105,-0.504,-0.974,-0.027,59,1
106,-0.5,-1.191,-0.134,59,1
107,-0.476,-1.409,-0.237,59,1
108,-0.383,-1.533,-0.34,59,1
109,-0.316,-1.562,-0.433,59,1
110,-0.236,-1.573,-0.556,59,1
111,-0.119,-1.483,-0.66,59,1
112,-0.051,-1.239,-0.608,59,1
113,0.009,-0.952,-0.433,59,1
114,0.062,-0.724,-0.239,59,1
115,0.064,-0.607,-0.11,59,1
116,0.03,-0.588,-0.035,59,1
117,0.007,-0.632,-0.002,59,1
118,-0.017,-0.748,-0.008,59,1
119,-0.058,-0.926,-0.06,60,1
120,-0.122,-1.146,-0.146,60,1
121,-0.19,-1.329,-0.214,60,1
122,-0.226,-1.481,-0.262,60,1
123,-0.265,-1.583,-0.288,60,1
124,-0.348,-1.454,-0.238,60,1
125,-0.385,-1.185,-0.163,60,1
126,-0.357,-1.029,-0.143,60,1
127,-0.356,-1.022,-0.143,60,1
128,-0.382,-1.034,-0.129,60,1
129,-0.409,-1.001,-0.092,60,1
130,-0.427,-0.921,-0.027,60,1
131,-0.435,-0.861,0.044,60,1
132,-0.448,-0.875,0.079,60,1
133,-0.48,-0.928,0.093,60,1
134,-0.534,-0.988,0.109,60,1
135,-0.567,-1.04,0.121,60,1
136,-0.59,-1.095,0.119,60,1
137,-0.63,-1.178,0.08,60,1
138,-0.638,-1.263,0.018,60,1
139,-0.647,-1.306,-0.005,60,1
140,-0.61,-1.25,0.024,60,1
141,-0.495,-1.053,0.05,60,1
142,-0.388,-0.827,0.091,60,1
143,-0.329,-0.68,0.168,60,1
144,-0.322,-0.612,0.227,60,1
145,-0.345,-0.623,0.283,60,1
146,-0.353,-0.649,0.385,60,1
147,-0.331,-0.636,0.472,60,1
148,-0.296,-0.587,0.531,60,1
149,-0.27,-0.531,0.618,61,1
150,-0.261,-0.476,0.679,61,1
151,-0.305,-0.454,0.727,61,1
152,-0.366,-0.538,0.794,61,1
153,-0.325,-0.616,0.844,61,1
154,-0.297,-0.62,0.885,61,1
155,-0.32,-0.62,0.922,61,1
156,-0.303,-0.584,0.901,61,1
157,-0.25,-0.544,0.761,61,1
158,-0.198,-0.524,0.679,61,1
159,-0.174,-0.484,0.755,61,1
160,-0.186,-0.427,0.824,61,1
161,-0.256,-0.382,0.874,61,1
162,-0.304,-0.356,0.925,61,1
163,-0.301,-0.346,0.902,61,1
164,-0.278,-0.372,0.85,61,1
165,-0.253,-0.406,0.773,61,1
166,-0.232,-0.424,0.687,61,1
167,-0.265,-0.556,0.688,61,1
168,-0.25,-0.646,0.781,61,1
169,-0.172,-0.552,0.855,61,1
170,-0.238,-0.511,0.896,61,1
171,-0.348,-0.497,0.96,61,1
172,-0.437,-0.449,0.96,61,1
173,-0.47,-0.423,0.861,61,1
174,-0.407,-0.422,0.676,61,1
175,-0.387,-0.474,0.46,61,1
176,-0.394,-0.546,0.373,61,1
177,-0.349,-0.574,0.396,61,1
178,-0.349,-0.589,0.395,61,1
179,-0.408,-0.604,0.349,62,1
180,-0.41,-0.602,0.327,62,1
181,-0.344,-0.618,0.369,62,1
182,-0.247,-0.679,0.462,62,1
183,-0.141,-0.787,0.492,62,1
184,-0.089,-0.985,0.334,62,1
185,-0.111,-1.29,0.105,62,1
186,-0.212,-1.551,-0.042,62,1
187,-0.326,-1.661,-0.115,62,1
188,-0.378,-1.604,-0.117,62,1
189,-0.395,-1.338,-0.028,62,1
190,-0.383,-1.011,0.036,62,1
191,-0.333,-0.836,-0.002,62,1
192,-0.271,-0.821,-0.087,62,1
193,-0.235,-0.847,-0.155,62,1
194,-0.249,-0.855,-0.17,62,1
195,-0.293,-0.849,-0.117,62,1
196,-0.314,-0.846,-0.026,62,1
197,-0.303,-0.867,0.041,62,1
198,-0.287,-0.904,0.051,62,1
199,-0.215,-0.926,0.088,63,1
200,-0.098,-0.942,0.202,63,1
201,-0.106,-0.962,0.24,63,1
202,-0.196,-1.016,0.156,63,1
203,-0.215,-1.109,0.068,63,1
204,-0.216,-1.193,0.023,63,1
205,-0.237,-1.194,-0.018,63,1
206,-0.249,-1.126,-0.087,63,1
207,-0.248,-1.069,-0.131,63,1
208,-0.243,-1.032,-0.141,63,1
209,-0.232,-0.98,-0.15,63,1
210,-0.225,-0.905,-0.156,63,1
211,-0.227,-0.856,-0.146,63,1
212,-0.222,-0.855,-0.13,63,1
213,-0.199,-0.863,-0.129,63,1
214,-0.182,-0.87,-0.132,63,1
215,-0.184,-0.901,-0.119,63,1
216,-0.188,-0.944,-0.107,63,1
217,-0.189,-1.003,-0.093,63,1
218,-0.187,-1.055,-0.065,63,1
219,-0.164,-1.089,-0.033,64,1
220,-0.113,-1.176,-0.031,64,1
221,-0.084,-1.192,-0.046,64,1
222,-0.11,-1.05,0.005,64,1
223,-0.129,-0.944,0.082,64,1
224,-0.125,-0.944,0.101,64,1
225,-0.171,-0.951,0.086,64,1
226,-0.21,-0.921,0.051,64,1
227,-0.229,-0.892,0.009,64,1
228,-0.261,-0.881,0,64,1
229,-0.281,-0.879,0.012,64,1
230,-0.29,-0.889,0.02,64,1
231,-0.277,-0.912,0.035,64,1
232,-0.262,-0.945,0.058,64,1
233,-0.268,-0.98,0.076,64,1
234,-0.294,-1.007,0.096,64,1
235,-0.308,-1.058,0.108,64,1
236,-0.312,-1.145,0.096,64,1
237,-0.323,-1.203,0.063,64,1
238,-0.316,-1.172,0.012,64,1
239,-0.29,-1.094,-0.042,65,1
240,-0.265,-1.09,-0.079,65,1
241,-0.238,-1.122,-0.12,65,1
242,-0.217,-1.1,-0.157,65,1
243,-0.201,-1.054,-0.17,65,1
244,-0.19,-0.991,-0.182,65,1
245,-0.189,-0.93,-0.187,65,1
246,-0.177,-0.891,-0.172,65,1
247,-0.156,-0.864,-0.145,65,1
248,-0.145,-0.862,-0.11,65,1
249,-0.139,-0.891,-0.076,65,1
250,-0.134,-0.942,-0.052,65,1
251,-0.127,-1.012,-0.044,65,1
252,-0.125,-1.101,-0.038,65,1
253,-0.15,-1.097,-0.009,65,1
254,-0.194,-0.994,0.04,65,1
255,-0.224,-0.961,0.075,65,1
256,-0.23,-1.027,0.068,65,1
257,-0.235,-1.088,0.045,65,1
258,-0.264,-1.076,0.04,65,1
259,-0.309,-1.015,0.036,66,1
260,-0.343,-0.961,0.03,66,1
261,-0.343,-0.935,0.035,66,1
262,-0.319,-0.939,0.052,66,1
263,-0.305,-0.95,0.077,66,1
264,-0.31,-0.963,0.107,66,1
265,-0.323,-0.982,0.13,66,1
266,-0.318,-1.013,0.134,66,1
267,-0.29,-1.078,0.107,66,1
268,-0.271,-1.153,0.068,66,1
269,-0.267,-1.162,0.026,66,1
270,-0.262,-1.083,-0.018,66,1
271,-0.25,-1.007,-0.064,66,1
272,-0.242,-1.007,-0.108,66,1
273,-0.237,-1.029,-0.144,66,1
274,-0.223,-1.017,-0.164,66,1
275,-0.213,-0.988,-0.162,66,1
276,-0.213,-0.958,-0.156,66,1
277,-0.21,-0.937,-0.149,66,1
278,-0.193,-0.923,-0.134,66,1
279,-0.175,-0.92,-0.115,66,1
280,-0.164,-0.932,-0.09,66,1
281,-0.152,-0.963,-0.063,66,1
282,-0.14,-0.997,-0.042,66,1
283,-0.131,-1.038,-0.029,66,1
284,-0.126,-1.104,-0.018,66,1
285,-0.136,-1.086,0.003,66,1
286,-0.169,-0.962,0.062,66,1
287,-0.197,-0.897,0.115,66,1
288,-0.21,-0.949,0.093,66,1
289,-0.254,-1.035,0.044,67,1
290,-0.31,-1.058,0.021,67,1
291,-0.349,-1.009,0.02,67,1
292,-0.369,-0.95,0.026,67,1
293,-0.349,-0.918,0.031,67,1
294,-0.309,-0.918,0.035,67,1
295,-0.285,-0.936,0.05,67,1
296,-0.292,-0.953,0.072,67,1
297,-0.315,-0.973,0.095,67,1
298,-0.325,-0.999,0.11,67,1
299,-0.319,-1.07,0.098,67,1
300,-0.322,-1.162,0.07,67,1
301,-0.325,-1.17,0.029,67,1
302,-0.303,-1.111,-0.013,67,1
303,-0.262,-1.09,-0.045,67,1
304,-0.227,-1.095,-0.083,67,1
305,-0.211,-1.066,-0.119,67,1
306,-0.204,-1.034,-0.134,67,1
307,-0.199,-0.994,-0.144,67,1
308,-0.19,-0.933,-0.145,67,1
309,-0.174,-0.878,-0.127,68,1
310,-0.158,-0.843,-0.105,68,1
311,-0.154,-0.846,-0.086,68,1
312,-0.152,-0.89,-0.072,68,1
313,-0.142,-0.947,-0.069,68,1
314,-0.135,-1.031,-0.071,68,1
315,-0.149,-1.107,-0.05,68,1
316,-0.187,-1.053,-0.002,68,1
317,-0.224,-0.956,0.039,68,1
318,-0.279,-0.974,0.052,68,1
319,-0.257,-1.045,0.035,68,1
320,-0.2,-1.077,0.034,68,1
321,-0.228,-1.04,0.071,68,1
322,-0.263,-0.972,0.091,68,1
323,-0.284,-0.937,0.082,68,1
324,-0.301,-0.943,0.083,68,1
325,-0.308,-0.965,0.093,68,1
326,-0.315,-0.98,0.099,68,1
327,-0.321,-0.993,0.11,68,1
328,-0.312,-1.019,0.113,68,1
329,-0.297,-1.071,0.087,69,1
330,-0.296,-1.162,0.05,69,1
331,-0.317,-1.215,-0.001,69,1
332,-0.328,-1.187,-0.089,69,1
333,-0.33,-1.155,-0.164,69,1
334,-0.38,-1.192,-0.182,69,1
335,-0.415,-1.217,-0.203,69,1
336,-0.43,-1.145,-0.203,69,1
337,-0.469,-1.051,-0.15,69,1
338,-0.455,-0.935,-0.13,69,1
339,-0.443,-0.774,-0.06,69,1
340,-0.468,-0.613,0.118,69,1
341,-0.408,-0.432,0.28,69,1
342,-0.354,-0.318,0.416,69,1
343,-0.385,-0.363,0.54,69,1
344,-0.357,-0.439,0.597,69,1
345,-0.29,-0.52,0.63,69,1
346,-0.323,-0.665,0.626,69,1
347,-0.367,-0.783,0.622,69,1
348,-0.306,-0.761,0.652,69,1
349,-0.271,-0.681,0.695,70,1
350,-0.284,-0.665,0.754,70,1
351,-0.279,-0.659,0.786,70,1
352,-0.293,-0.608,0.785,70,1
353,-0.327,-0.542,0.782,70,1
354,-0.348,-0.487,0.77,70,1
355,-0.344,-0.457,0.74,70,1
356,-0.326,-0.45,0.722,70,1
357,-0.296,-0.452,0.698,70,1
358,-0.279,-0.488,0.683,70,1
359,-0.288,-0.544,0.671,70,1
360,-0.3,-0.6,0.65,70,1
361,-0.284,-0.644,0.694,70,1
362,-0.288,-0.664,0.793,70,1
363,-0.31,-0.591,0.868,70,1
364,-0.3,-0.51,0.893,70,1
365,-0.328,-0.57,0.913,70,1
366,-0.363,-0.62,0.922,70,1
367,-0.32,-0.523,0.84,70,1
368,-0.25,-0.386,0.723,70,1
369,-0.257,-0.383,0.678,71,1
370,-0.302,-0.481,0.749,71,1
371,-0.302,-0.523,0.824,71,1
372,-0.291,-0.488,0.809,71,1
373,-0.265,-0.447,0.756,71,1
374,-0.246,-0.451,0.659,71,1
375,-0.314,-0.542,0.614,71,1
376,-0.386,-0.646,0.65,71,1
377,-0.402,-0.688,0.635,71,1
378,-0.39,-0.729,0.568,71,1
379,-0.31,-0.702,0.535,71,1
380,-0.188,-0.601,0.558,71,1
381,-0.119,-0.56,0.538,71,1
382,-0.067,-0.626,0.379,71,1
383,-0.143,-0.811,0.252,71,1
384,-0.353,-1.043,0.253,71,1
385,-0.624,-1.236,0.309,71,1
386,-0.816,-1.279,0.403,71,1
387,-0.795,-1.16,0.461,71,1
388,-0.743,-1.032,0.451,71,1
389,-0.688,-0.954,0.418,72,1
390,-0.633,-0.917,0.391,72,1
391,-0.604,-0.906,0.342,72,1
392,-0.601,-0.996,0.253,72,1
393,-0.62,-1.142,0.156,72,1
394,-0.636,-1.191,0.081,72,1
395,-0.64,-1.19,0.046,72,1
396,-0.613,-1.161,0.045,72,1
397,-0.557,-1.02,0.09,72,1
398,-0.468,-0.802,0.178,72,1
399,-0.371,-0.585,0.284,72,1
400,-0.317,-0.423,0.377,72,1
401,-0.31,-0.357,0.433,72,1
402,-0.353,-0.376,0.491,72,1
403,-0.417,-0.43,0.552,72,1
404,-0.448,-0.476,0.588,72,1
405,-0.47,-0.515,0.614,72,1
406,-0.476,-0.558,0.682,72,1
407,-0.469,-0.601,0.764,72,1
408,-0.462,-0.611,0.806,72,1
409,-0.43,-0.534,0.808,72,1
410,-0.375,-0.418,0.781,72,1
411,-0.338,-0.386,0.747,72,1
412,-0.345,-0.422,0.737,72,1
413,-0.344,-0.459,0.771,72,1
414,-0.327,-0.456,0.784,72,1
415,-0.304,-0.409,0.76,72,1
416,-0.282,-0.387,0.763,72,1
417,-0.267,-0.413,0.769,72,1
418,-0.288,-0.454,0.775,72,1
419,-0.289,-0.475,0.808,73,1
420,-0.276,-0.512,0.815,73,1
421,-0.3,-0.541,0.86,73,1
422,-0.342,-0.505,0.918,73,1
423,-0.375,-0.479,0.906,73,1
424,-0.398,-0.479,0.889,73,1
425,-0.429,-0.461,0.869,73,1
426,-0.402,-0.409,0.825,73,1
427,-0.344,-0.372,0.777,73,1
428,-0.336,-0.415,0.789,73,1
429,-0.357,-0.478,0.841,73,1
430,-0.349,-0.472,0.818,73,1
431,-0.325,-0.408,0.73,73,1
432,-0.323,-0.354,0.665,73,1
433,-0.345,-0.351,0.704,73,1
434,-0.357,-0.406,0.816,73,1
435,-0.323,-0.442,0.88,73,1
436,-0.332,-0.409,0.875,73,1
437,-0.368,-0.326,0.822,73,1
438,-0.38,-0.327,0.821,73,1
439,-0.38,-0.425,0.909,73,1
440,-0.341,-0.42,0.897,73,1
441,-0.306,-0.365,0.854,73,1
442,-0.295,-0.354,0.86,73,1
443,-0.324,-0.416,0.878,73,1
444,-0.331,-0.475,0.9,73,1
445,-0.293,-0.461,0.859,73,1
446,-0.263,-0.429,0.812,73,1
447,-0.25,-0.418,0.805,73,1
448,-0.268,-0.383,0.784,73,1
449,-0.318,-0.362,0.785,73,1
450,-0.354,-0.427,0.855,73,1
451,-0.322,-0.452,0.903,73,1
452,-0.295,-0.4,0.863,73,1
453,-0.349,-0.348,0.816,73,1
454,-0.416,-0.315,0.82,73,1
455,-0.429,-0.3,0.86,73,1
456,-0.436,-0.358,0.91,73,1
457,-0.436,-0.42,0.898,73,1
458,-0.41,-0.412,0.836,73,1
459,-0.387,-0.397,0.787,74,1
460,-0.378,-0.346,0.754,74,1
461,-0.414,-0.337,0.707,74,1
462,-0.428,-0.408,0.737,74,1
463,-0.393,-0.443,0.813,74,1
464,-0.414,-0.425,0.808,74,1
465,-0.429,-0.374,0.756,74,1
466,-0.401,-0.371,0.736,74,1
467,-0.378,-0.43,0.696,74,1
468,-0.366,-0.566,0.64,74,1
469,-0.378,-0.691,0.65,74,1
470,-0.313,-0.679,0.636,74,1
471,-0.209,-0.627,0.548,74,1
472,-0.19,-0.623,0.438,74,1
473,-0.149,-0.643,0.363,74,1
474,-0.096,-0.685,0.306,74,1
475,-0.134,-0.809,0.229,74,1
476,-0.208,-1.029,0.111,74,1
477,-0.304,-1.309,0.018,74,1
478,-0.519,-1.47,0.028,74,1
479,-0.62,-1.369,0.05,74,1
480,-0.506,-1.215,0.088,74,1
481,-0.427,-1.14,0.165,74,1
482,-0.417,-1.109,0.16,74,1
483,-0.459,-1.202,0.105,74,1
484,-0.472,-1.281,0.029,74,1
485,-0.387,-1.255,-0.083,74,1
486,-0.273,-1.25,-0.142,74,1
487,-0.213,-1.206,-0.135,74,1
488,-0.196,-1.09,-0.132,74,1
489,-0.18,-0.985,-0.156,74,1
490,-0.171,-0.914,-0.184,74,1
491,-0.158,-0.846,-0.194,74,1
492,-0.134,-0.788,-0.186,74,1
493,-0.123,-0.784,-0.158,74,1
494,-0.12,-0.857,-0.119,74,1
495,-0.119,-0.982,-0.075,74,1
496,-0.117,-1.083,-0.035,74,1
497,-0.093,-1.184,-0.031,74,1
498,-0.077,-1.243,-0.045,74,1
499,-0.101,-1.171,-0.017,75,1
500,-0.141,-1.084,0.035,75,1
501,-0.196,-1.047,0.058,75,1
502,-0.242,-1.004,0.041,75,1
503,-0.278,-0.946,0.011,75,1
504,-0.317,-0.908,-0.004,75,1
505,-0.347,-0.907,-0.011,75,1
506,-0.361,-0.946,-0.008,75,1
507,-0.357,-0.985,0.017,75,1
508,-0.342,-0.992,0.057,75,1
509,-0.333,-0.997,0.094,73,1
510,-0.329,-1.017,0.117,73,1
511,-0.323,-1.093,0.127,73,1
512,-0.322,-1.229,0.128,73,1
513,-0.298,-1.266,0.072,73,1
514,-0.247,-1.207,-0.026,73,1
515,-0.202,-1.179,-0.102,73,1
516,-0.19,-1.113,-0.148,73,1
517,-0.204,-1.017,-0.163,73,1
518,-0.195,-0.95,-0.168,73,1
519,-0.175,-0.881,-0.183,74,1
520,-0.156,-0.82,-0.188,74,1
521,-0.14,-0.81,-0.185,74,1
522,-0.131,-0.836,-0.181,74,1
523,-0.123,-0.875,-0.151,74,1
524,-0.124,-0.936,-0.092,74,1
525,-0.115,-1.02,-0.042,74,1
526,-0.099,-1.17,-0.024,74,1
527,-0.107,-1.235,-0.009,74,1
528,-0.153,-1.161,0.059,74,1
529,-0.197,-1.099,0.144,75,1
530,-0.215,-1.059,0.163,75,1
531,-0.225,-1.006,0.132,75,1
532,-0.25,-0.934,0.091,75,1
533,-0.293,-0.873,0.052,75,1
534,-0.332,-0.852,0.031,75,1
535,-0.352,-0.864,0.052,75,1
536,-0.341,-0.895,0.089,75,1
537,-0.333,-0.951,0.096,75,1
538,-0.352,-0.995,0.091,75,1
539,-0.37,-1.011,0.091,73,1
540,-0.375,-1.077,0.063,73,1
541,-0.383,-1.19,0.016,73,1
542,-0.388,-1.249,-0.046,73,1
543,-0.398,-1.256,-0.115,73,1
544,-0.401,-1.246,-0.144,73,1
545,-0.368,-1.196,-0.136,73,1
546,-0.35,-1.129,-0.087,73,1
547,-0.365,-1.052,-0.029,73,1
548,-0.409,-0.948,-0.029,73,1
549,-0.492,-0.834,-0.039,72,1
550,-0.497,-0.749,0.003,72,1
551,-0.424,-0.655,0.035,72,1
552,-0.423,-0.588,0.034,72,1
553,-0.479,-0.601,0.016,72,1
554,-0.491,-0.667,-0.027,72,1
555,-0.443,-0.778,-0.068,72,1
556,-0.412,-0.824,-0.076,72,1
557,-0.379,-0.778,-0.01,72,1
558,-0.321,-0.753,0.085,72,1
559,-0.267,-0.814,0.079,71,1
560,-0.24,-0.968,0.025,71,1
561,-0.276,-1.16,0.023,71,1
562,-0.371,-1.281,0.019,71,1
563,-0.488,-1.296,0.028,71,1
564,-0.555,-1.24,0.06,71,1
565,-0.55,-1.164,0.094,71,1
566,-0.502,-1.098,0.154,71,1
567,-0.448,-1.049,0.206,71,1
568,-0.422,-1.016,0.2,71,1
569,-0.416,-1.059,0.146,71,1
570,-0.421,-1.206,0.084,71,1
571,-0.392,-1.29,-0.02,71,1
572,-0.312,-1.285,-0.161,71,1
573,-0.249,-1.269,-0.225,71,1
574,-0.223,-1.209,-0.221,71,1
575,-0.192,-1.112,-0.222,71,1
576,-0.153,-0.998,-0.233,71,1
577,-0.139,-0.893,-0.23,71,1
578,-0.142,-0.813,-0.213,71,1
579,-0.138,-0.764,-0.192,70,1
580,-0.061,-0.794,-0.157,70,1
581,-0.024,-0.922,-0.09,70,1
582,-0.101,-1.162,-0.113,70,1
583,-0.035,-1.177,-0.233,70,1
584,0.061,-1.078,-0.132,70,1
585,0.015,-1.095,0.083,70,1
586,-0.053,-1.059,0.099,70,1
587,-0.203,-1.132,0.069,70,1
588,-0.399,-1.248,0.078,70,1
589,-0.493,-1.204,0.02,70,1
590,-0.467,-1.068,-0.052,70,1
591,-0.415,-0.957,-0.079,70,1
592,-0.384,-0.867,-0.089,70,1
593,-0.347,-0.821,-0.077,70,1
594,-0.317,-0.824,-0.015,70,1
595,-0.304,-0.864,0.054,70,1
596,-0.303,-0.934,0.088,70,1
597,-0.305,-1.014,0.095,70,1
598,-0.294,-1.091,0.076,70,1
599,-0.302,-1.191,0.058,70,1
600,-0.303,-1.256,0.027,70,1
601,-0.267,-1.228,-0.06,70,1
602,-0.251,-1.17,-0.14,70,1
603,-0.236,-1.107,-0.167,70,1
604,-0.146,-0.978,-0.178,70,1
605,-0.061,-0.815,-0.17,70,1
606,-0.078,-0.736,-0.155,70,1
607,-0.126,-0.753,-0.151,70,1
608,-0.133,-0.809,-0.138,70,1
609,-0.094,-0.877,-0.113,69,1
610,-0.054,-0.97,-0.091,69,1
611,-0.051,-1.094,-0.093,69,1
612,-0.07,-1.176,-0.102,69,1
613,-0.073,-1.204,-0.095,69,1
614,-0.048,-1.227,-0.099,69,1
615,-0.056,-1.155,-0.1,69,1
616,-0.132,-1.04,-0.037,69,1
617,-0.201,-1,0.025,69,1
618,-0.221,-0.978,0.022,69,1
619,-0.237,-0.929,0.015,69,1
620,-0.27,-0.879,0.024,69,1
621,-0.308,-0.854,0.02,69,1
622,-0.33,-0.861,0.039,69,1
623,-0.32,-0.886,0.084,69,1
624,-0.293,-0.924,0.103,69,1
625,-0.281,-0.965,0.105,69,1
626,-0.282,-1,0.111,69,1
627,-0.268,-1.047,0.08,69,1
628,-0.25,-1.173,0.023,69,1
629,-0.22,-1.25,-0.001,69,1
630,-0.167,-1.17,-0.024,69,1
631,-0.149,-1.118,-0.093,69,1
632,-0.169,-1.118,-0.161,69,1
633,-0.176,-1.045,-0.161,69,1
634,-0.178,-0.933,-0.126,69,1
635,-0.184,-0.853,-0.107,69,1
636,-0.181,-0.812,-0.108,69,1
637,-0.166,-0.818,-0.108,69,1
638,-0.146,-0.86,-0.101,69,1
639,-0.133,-0.933,-0.095,69,1
640,-0.128,-1.033,-0.094,69,1
641,-0.124,-1.098,-0.088,69,1
642,-0.107,-1.171,-0.071,69,1
643,-0.097,-1.189,-0.064,69,1
644,-0.135,-1.082,-0.038,69,1
645,-0.182,-1.025,0.037,69,1
646,-0.202,-1.032,0.086,69,1
647,-0.208,-0.996,0.077,69,1
648,-0.224,-0.919,0.057,69,1
649,-0.254,-0.861,0.038,69,1
650,-0.284,-0.843,0.021,69,1
651,-0.303,-0.849,0.017,69,1
652,-0.305,-0.877,0.04,69,1
653,-0.307,-0.922,0.086,69,1
654,-0.309,-0.97,0.127,69,1
655,-0.294,-0.992,0.119,69,1
656,-0.28,-1.055,0.073,69,1
657,-0.296,-1.198,0.049,69,1
658,-0.298,-1.255,0.008,69,1
659,-0.252,-1.209,-0.07,69,1
660,-0.206,-1.201,-0.12,69,1
661,-0.182,-1.16,-0.141,69,1
662,-0.178,-1.033,-0.142,69,1
663,-0.177,-0.91,-0.126,69,1
664,-0.163,-0.828,-0.116,69,1
665,-0.144,-0.788,-0.109,69,1
666,-0.124,-0.787,-0.102,69,1
667,-0.114,-0.839,-0.091,69,1
668,-0.12,-0.923,-0.071,69,1
669,-0.127,-1.025,-0.05,69,1
670,-0.125,-1.104,-0.034,69,1
671,-0.115,-1.176,-0.02,69,1
672,-0.125,-1.206,-0.012,69,1
673,-0.169,-1.119,0.021,69,1
674,-0.206,-1.036,0.067,69,1
675,-0.211,-1.013,0.076,69,1
676,-0.209,-0.985,0.066,69,1
677,-0.22,-0.912,0.056,69,1
678,-0.249,-0.833,0.04,69,1
679,-0.28,-0.803,0.02,69,1
680,-0.302,-0.836,0.015,69,1
681,-0.305,-0.901,0.037,69,1
682,-0.295,-0.949,0.062,69,1
683,-0.287,-0.99,0.078,69,1
684,-0.278,-1.043,0.079,69,1
685,-0.282,-1.161,0.072,69,1
686,-0.303,-1.26,0.054,69,1
687,-0.308,-1.211,0.003,69,1
688,-0.286,-1.143,-0.059,69,1
689,-0.264,-1.108,-0.105,69,1
690,-0.248,-1.05,-0.121,69,1
691,-0.227,-0.964,-0.122,69,1
692,-0.21,-0.878,-0.127,69,1
693,-0.198,-0.833,-0.129,69,1
694,-0.176,-0.811,-0.128,69,1
695,-0.148,-0.798,-0.129,69,1
696,-0.131,-0.84,-0.129,69,1
697,-0.132,-0.947,-0.122,69,1
698,-0.143,-1.059,-0.104,69,1
699,-0.133,-1.115,-0.07,69,1
700,-0.091,-1.186,-0.052,69,1
701,-0.061,-1.198,-0.057,69,1
702,-0.102,-1.105,-0.015,69,1
703,-0.166,-1.052,0.061,69,1
704,-0.181,-1.023,0.079,69,1
705,-0.172,-0.959,0.049,69,1
706,-0.189,-0.875,0.029,69,1
707,-0.234,-0.822,0.013,69,1
708,-0.267,-0.821,0.001,69,1
709,-0.277,-0.862,0.011,69,1
710,-0.284,-0.917,0.049,69,1
711,-0.294,-0.956,0.093,69,1
712,-0.307,-0.991,0.123,69,1
713,-0.321,-1.028,0.129,69,1
714,-0.329,-1.086,0.108,69,1
715,-0.347,-1.182,0.086,69,1
716,-0.349,-1.228,0.03,69,1
717,-0.311,-1.217,-0.073,69,1
718,-0.277,-1.229,-0.137,69,1
719,-0.252,-1.204,-0.152,70,1
720,-0.232,-1.1,-0.155,70,1
721,-0.218,-0.997,-0.152,70,1
722,-0.204,-0.931,-0.151,70,1
723,-0.191,-0.898,-0.149,70,1
724,-0.159,-0.869,-0.143,70,1
725,-0.12,-0.848,-0.129,70,1
726,-0.1,-0.879,-0.102,70,1
727,-0.098,-0.946,-0.075,70,1
728,-0.102,-1.013,-0.059,70,1
729,-0.106,-1.119,-0.038,70,1
730,-0.116,-1.163,-0.025,70,1
731,-0.152,-1.096,0.008,70,1
732,-0.195,-1.088,0.067,70,1
733,-0.217,-1.139,0.066,70,1
734,-0.239,-1.138,0.034,70,1
735,-0.264,-1.043,0.026,70,1
736,-0.298,-0.932,0.02,70,1
737,-0.347,-0.867,0.026,70,1
738,-0.376,-0.858,0.052,70,1
739,-0.382,-0.896,0.082,71,1
740,-0.376,-0.932,0.107,71,1
741,-0.354,-0.975,0.11,71,1
742,-0.325,-1.038,0.08,71,1
743,-0.308,-1.166,0.041,71,1
744,-0.318,-1.315,0.013,71,1
745,-0.312,-1.296,-0.032,71,1
746,-0.281,-1.167,-0.081,71,1
747,-0.263,-1.099,-0.104,71,1
748,-0.227,-1.065,-0.135,71,1
749,-0.174,-0.988,-0.162,73,1
750,-0.14,-0.889,-0.154,73,1
751,-0.132,-0.842,-0.131,73,1
752,-0.12,-0.825,-0.12,73,1
753,-0.098,-0.814,-0.111,73,1
754,-0.088,-0.86,-0.08,73,1
755,-0.078,-0.968,-0.051,73,1
756,-0.062,-1.077,-0.045,73,1
757,-0.042,-1.16,-0.056,73,1
758,-0.042,-1.291,-0.068,73,1
759,-0.074,-1.314,-0.056,75,1
760,-0.099,-1.177,-0.026,75,1
761,-0.112,-1.08,-0.009,75,1
762,-0.14,-1.028,-0.021,75,1
763,-0.188,-0.956,-0.029,75,1
764,-0.246,-0.875,0.001,75,1
765,-0.292,-0.836,0.04,75,1
766,-0.34,-0.845,0.068,75,1
767,-0.398,-0.883,0.102,75,1
768,-0.433,-0.924,0.119,75,1
769,-0.447,-0.96,0.124,76,1
770,-0.446,-1.006,0.13,76,1
771,-0.42,-1.081,0.096,76,1
772,-0.385,-1.259,0.007,76,1
773,-0.355,-1.411,-0.08,76,1
774,-0.321,-1.366,-0.131,76,1
775,-0.245,-1.229,-0.171,76,1
776,-0.172,-1.113,-0.179,76,1
777,-0.162,-1.066,-0.179,76,1
778,-0.1,-1.026,-0.187,76,1
779,0.096,-0.843,-0.15,78,1
780,0.257,-0.623,-0.082,78,1
781,0.246,-0.691,-0.075,78,1
782,0.166,-0.942,-0.123,78,1
783,0.15,-1.088,-0.122,78,1
784,0.196,-1.127,-0.093,78,1
785,0.151,-1.15,-0.072,78,1
786,0.039,-1.246,-0.089,78,1
787,-0.039,-1.292,-0.102,78,1
788,-0.099,-1.214,0.012,78,1
789,-0.101,-1.129,0.116,79,1
790,-0.066,-1.054,0.087,79,1
791,-0.052,-0.959,0.048,79,1
792,-0.061,-0.84,0.031,79,1
793,-0.106,-0.741,-0.005,79,1
794,-0.148,-0.719,-0.038,79,1
795,-0.157,-0.778,-0.054,79,1
796,-0.161,-0.85,-0.035,79,1
797,-0.173,-0.917,0.03,79,1
798,-0.206,-0.984,0.104,79,1
799,-0.271,-1.028,0.152,79,1
800,-0.326,-1.125,0.154,79,1
801,-0.375,-1.309,0.138,79,1
802,-0.391,-1.349,0.086,79,1
803,-0.346,-1.245,0.002,79,1
804,-0.313,-1.18,-0.052,79,1
805,-0.302,-1.116,-0.079,79,1
806,-0.28,-1.035,-0.097,79,1
807,-0.254,-0.965,-0.121,79,1
808,-0.223,-0.926,-0.144,79,1
809,-0.186,-0.92,-0.148,79,1
810,-0.146,-0.912,-0.144,79,1
811,-0.11,-0.902,-0.139,79,1
812,-0.1,-0.927,-0.129,79,1
813,-0.106,-0.97,-0.12,79,1
814,-0.109,-1.015,-0.142,79,1
815,-0.128,-1.116,-0.17,79,1
816,-0.141,-1.127,-0.135,79,1
817,-0.161,-1.01,-0.018,79,1
818,-0.152,-0.966,0.089,79,1
819,-0.094,-1,0.1,79,1
820,-0.108,-1.055,0.079,79,1
821,-0.21,-1.053,0.065,79,1
822,-0.325,-0.996,-0.001,79,1
823,-0.398,-0.955,-0.075,79,1
824,-0.423,-0.959,-0.081,79,1
825,-0.392,-0.975,-0.038,79,1
826,-0.336,-0.97,0.022,79,1
827,-0.329,-0.954,0.076,79,1
828,-0.367,-0.965,0.092,79,1
829,-0.399,-1.09,0.062,79,1
830,-0.422,-1.277,0.031,79,1
831,-0.384,-1.322,-0.018,79,1
832,-0.29,-1.255,-0.1,79,1
833,-0.233,-1.17,-0.144,79,1
834,-0.217,-1.081,-0.114,79,1
835,-0.203,-0.991,-0.073,79,1
836,-0.208,-0.881,-0.058,79,1
837,-0.204,-0.855,-0.05,79,1
838,-0.183,-0.873,-0.07,79,1
839,-0.164,-0.863,-0.095,79,1
840,-0.131,-0.901,-0.115,79,1
841,-0.101,-0.989,-0.139,79,1
842,-0.082,-1.054,-0.135,79,1
843,-0.072,-1.073,-0.099,79,1
844,-0.071,-1.11,-0.082,79,1
845,-0.104,-1.093,-0.057,79,1
846,-0.158,-1.018,0.019,79,1
847,-0.178,-1.008,0.066,79,1
848,-0.186,-1.026,0.061,79,1
849,-0.186,-0.994,0.056,79,1
850,-0.193,-0.933,0.059,79,1
851,-0.241,-0.902,0.053,79,1
852,-0.3,-0.897,0.028,79,1
853,-0.35,-0.906,0.011,79,1
854,-0.378,-0.931,0.022,79,1
855,-0.414,-0.978,0.044,79,1
856,-0.463,-1.055,0.081,79,1
857,-0.472,-1.113,0.118,79,1
858,-0.489,-1.207,0.108,79,1
859,-0.723,-1.404,0.113,79,1
860,-0.941,-1.593,0.147,79,1
861,-0.99,-1.68,0.2,79,1
862,-0.965,-1.571,0.29,79,1
863,-0.825,-1.29,0.401,79,1
864,-0.71,-0.977,0.472,79,1
865,-0.727,-0.783,0.481,79,1
866,-0.821,-0.697,0.52,79,1
867,-0.85,-0.595,0.625,79,1
868,-0.782,-0.487,0.662,79,1
869,-0.702,-0.533,0.598,79,1
870,-0.632,-0.697,0.492,79,1
871,-0.546,-0.791,0.413,79,1
872,-0.466,-0.674,0.334,79,1
873,-0.447,-0.342,0.263,79,1
874,-0.503,-0.144,0.272,79,1
875,-0.464,-0.093,0.329,79,1
876,-0.313,0.011,0.424,79,1
877,-0.211,0.092,0.444,79,1
878,-0.182,0.128,0.417,79,1
879,-0.162,0.135,0.399,79,1
880,-0.148,0.056,0.331,79,1
881,-0.199,-0.041,0.213,79,1
882,-0.308,-0.123,0.126,79,1
883,-0.402,-0.197,0.125,79,1
884,-0.472,-0.127,0.279,79,1
885,-0.522,-0.021,0.535,79,1
886,-0.549,0.039,0.691,79,1
887,-0.59,0.041,0.68,79,1
888,-0.719,-0.097,0.555,79,1
889,-0.936,-0.365,0.334,79,1
890,-1.088,-0.72,0.383,79,1
891,-1.1,-0.924,0.6,79,1
892,-0.969,-1.001,0.521,79,1
893,-0.769,-1.093,0.329,79,1
894,-0.656,-1.236,0.226,79,1
895,-0.722,-1.373,0.175,79,1
896,-0.803,-1.325,0.106,79,1
897,-0.734,-1.187,0.058,79,1
898,-0.578,-1.15,0.074,79,1
899,-0.401,-1.15,0.098,79,1
900,-0.271,-1.118,0.038,79,1
901,-0.197,-1.168,-0.074,79,1
902,-0.183,-1.257,-0.163,79,1
903,-0.25,-1.18,-0.143,79,1
904,-0.281,-1.058,-0.008,79,1
905,-0.228,-1,0.074,79,1
906,-0.17,-0.93,0.034,79,1
907,-0.131,-0.831,-0.02,79,1
908,-0.118,-0.738,-0.033,79,1
909,-0.13,-0.698,-0.033,79,1
910,-0.166,-0.676,-0.032,79,1
911,-0.217,-0.67,-0.017,79,1
912,-0.274,-0.71,0.001,79,1
913,-0.349,-0.799,0.006,79,1
914,-0.402,-0.96,-0.013,79,1
915,-0.427,-1.247,-0.066,79,1
916,-0.445,-1.419,-0.123,79,1
917,-0.431,-1.311,-0.143,79,1
918,-0.404,-1.176,-0.149,79,1
919,-0.384,-1.097,-0.157,79,1
920,-0.341,-0.982,-0.142,79,1
921,-0.285,-0.832,-0.113,79,1
922,-0.254,-0.734,-0.12,79,1
923,-0.246,-0.741,-0.156,79,1
924,-0.241,-0.814,-0.172,79,1
925,-0.223,-0.892,-0.17,79,1
926,-0.207,-0.935,-0.181,79,1
927,-0.211,-0.951,-0.18,79,1
928,-0.227,-0.971,-0.154,79,1
929,-0.255,-0.996,-0.112,79,1
930,-0.287,-1.054,-0.064,79,1
931,-0.312,-1.151,-0.035,79,1
932,-0.352,-1.174,0.028,79,1
933,-0.372,-1.083,0.084,79,1
934,-0.358,-0.995,0.063,79,1
935,-0.333,-0.93,0.031,79,1
936,-0.309,-0.837,-0.006,79,1
937,-0.288,-0.757,-0.052,79,1
938,-0.273,-0.73,-0.062,79,1
939,-0.281,-0.739,-0.047,79,1
940,-0.315,-0.767,-0.031,79,1
941,-0.373,-0.823,0.003,79,1
942,-0.422,-0.882,0.049,79,1
943,-0.421,-0.96,0.051,79,1
944,-0.415,-1.149,0.026,79,1
945,-0.427,-1.349,-0.009,79,1
946,-0.382,-1.341,-0.09,79,1
947,-0.309,-1.192,-0.138,79,1
948,-0.269,-1.06,-0.099,79,1
949,-0.251,-0.948,-0.062,80,1
950,-0.239,-0.855,-0.076,80,1
951,-0.212,-0.802,-0.104,80,1
952,-0.178,-0.768,-0.121,80,1
953,-0.152,-0.764,-0.134,80,1
954,-0.134,-0.821,-0.161,80,1
955,-0.125,-0.922,-0.171,80,1
956,-0.118,-1.002,-0.129,80,1
957,-0.093,-1.064,-0.083,80,1
958,-0.068,-1.232,-0.092,80,1
959,-0.099,-1.324,-0.075,80,1
960,-0.156,-1.223,0.029,80,1
961,-0.156,-1.124,0.106,80,1
962,-0.122,-1.027,0.101,80,1
963,-0.145,-0.895,0.08,80,1
964,-0.226,-0.774,0.065,80,1
965,-0.296,-0.709,0.039,80,1
966,-0.34,-0.715,0.017,80,1
967,-0.378,-0.768,0.042,80,1
968,-0.398,-0.835,0.086,80,1
969,-0.399,-0.891,0.095,80,1
970,-0.399,-0.968,0.092,80,1
971,-0.387,-1.052,0.074,80,1
972,-0.361,-1.138,0.044,80,1
973,-0.362,-1.207,0.033,80,1
974,-0.365,-1.194,0,80,1
975,-0.335,-1.158,-0.068,80,1
976,-0.295,-1.125,-0.111,80,1
977,-0.265,-1.049,-0.119,80,1
978,-0.242,-0.957,-0.101,80,1
979,-0.222,-0.892,-0.092,80,1
980,-0.205,-0.853,-0.099,80,1
981,-0.183,-0.822,-0.094,80,1
982,-0.156,-0.822,-0.075,80,1
983,-0.135,-0.879,-0.061,80,1
984,-0.126,-0.98,-0.062,80,1
985,-0.122,-1.091,-0.07,80,1
986,-0.104,-1.205,-0.079,80,1
987,-0.099,-1.262,-0.078,80,1
988,-0.142,-1.141,-0.012,80,1
989,-0.195,-0.987,0.095,80,1
990,-0.21,-0.958,0.135,80,1
991,-0.184,-0.966,0.1,80,1
992,-0.18,-0.935,0.07,80,1
993,-0.224,-0.873,0.061,80,1
994,-0.274,-0.822,0.043,80,1
995,-0.307,-0.817,0.026,80,1
996,-0.321,-0.849,0.046,80,1
997,-0.312,-0.893,0.085,80,1
998,-0.305,-0.937,0.122,80,1
999,-0.313,-0.978,0.141,80,1
1000,-0.31,-1.101,0.104,80,1
1001,-0.336,-1.284,0.063,80,1
1002,-0.368,-1.27,0.019,80,1
1003,-0.339,-1.138,-0.045,80,1
1004,-0.297,-1.104,-0.091,80,1
1005,-0.276,-1.078,-0.101,80,1
1006,-0.253,-1.003,-0.084,80,1
1007,-0.226,-0.915,-0.085,80,1
1008,-0.21,-0.859,-0.097,80,1
1009,-0.194,-0.839,-0.096,80,1
1010,-0.168,-0.83,-0.092,80,1
1011,-0.145,-0.854,-0.091,80,1
1012,-0.138,-0.948,-0.082,80,1
1013,-0.142,-1.05,-0.057,80,1
1014,-0.14,-1.1,-0.027,80,1
1015,-0.124,-1.171,-0.028,80,1
1016,-0.127,-1.184,-0.011,80,1
1017,-0.165,-1.114,0.054,80,1
1018,-0.206,-1.071,0.098,80,1
1019,-0.213,-1.029,0.108,80,1
1020,-0.191,-0.956,0.1,80,1
1021,-0.201,-0.869,0.088,80,1
1022,-0.238,-0.811,0.07,80,1
1023,-0.278,-0.794,0.031,80,1
1024,-0.32,-0.82,0.017,80,1
1025,-0.346,-0.874,0.051,80,1
1026,-0.341,-0.927,0.087,80,1
1027,-0.326,-0.988,0.103,80,1
1028,-0.328,-1.04,0.098,80,1
1029,-0.351,-1.098,0.078,80,1
1030,-0.401,-1.18,0.084,80,1
1031,-0.414,-1.171,0.066,80,1
1032,-0.356,-1.135,-0.016,80,1
1033,-0.299,-1.157,-0.099,80,1
1034,-0.273,-1.126,-0.131,80,1
1035,-0.253,-1.022,-0.112,80,1
1036,-0.231,-0.929,-0.095,80,1
1037,-0.223,-0.874,-0.103,80,1
1038,-0.218,-0.854,-0.106,80,1
1039,-0.19,-0.858,-0.103,80,1
1040,-0.151,-0.864,-0.106,80,1
1041,-0.13,-0.893,-0.105,80,1
1042,-0.129,-0.959,-0.095,80,1
1043,-0.135,-1.02,-0.062,80,1
1044,-0.13,-1.13,-0.04,80,1
1045,-0.124,-1.216,-0.058,80,1
1046,-0.155,-1.149,-0.028,80,1
1047,-0.195,-1.08,0.052,80,1
1048,-0.201,-1.073,0.085,80,1
1049,-0.198,-1.033,0.061,80,1
1050,-0.219,-0.944,0.021,80,1
1051,-0.271,-0.862,-0.021,80,1
1052,-0.322,-0.834,-0.055,80,1
1053,-0.351,-0.855,-0.06,80,1
1054,-0.361,-0.903,-0.026,80,1
1055,-0.356,-0.947,0.026,80,1
1056,-0.362,-0.982,0.064,80,1
1057,-0.375,-1.033,0.065,80,1
1058,-0.375,-1.149,0.028,80,1
1059,-0.353,-1.329,0.001,80,1
1060,-0.298,-1.358,-0.026,80,1
1061,-0.24,-1.224,-0.076,80,1
1062,-0.224,-1.098,-0.12,80,1
1063,-0.257,-0.998,-0.126,80,1
1064,-0.29,-0.938,-0.083,80,1
1065,-0.277,-0.881,-0.067,80,1
1066,-0.212,-0.809,-0.136,80,1
1067,-0.151,-0.769,-0.207,80,1
1068,-0.133,-0.775,-0.208,80,1
1069,-0.106,-0.829,-0.194,80,1
1070,-0.091,-0.945,-0.176,80,1
1071,-0.107,-1.071,-0.15,80,1
1072,-0.113,-1.142,-0.164,80,1
1073,-0.099,-1.223,-0.196,80,1
1074,-0.106,-1.239,-0.156,80,1
1075,-0.143,-1.107,-0.033,80,1
1076,-0.168,-0.987,0.081,80,1
1077,-0.159,-0.954,0.1,80,1
1078,-0.226,-0.987,0.067,80,1
1079,-0.294,-0.976,0.039,80,1
1080,-0.307,-0.916,0.011,80,1
1081,-0.328,-0.877,-0.01,80,1
1082,-0.327,-0.864,-0.025,80,1
1083,-0.326,-0.889,0.003,80,1
1084,-0.316,-0.918,0.054,80,1
1085,-0.32,-0.952,0.082,80,1
1086,-0.334,-1.007,0.087,80,1
1087,-0.345,-1.126,0.062,80,1
1088,-0.368,-1.265,0.031,80,1
1089,-0.37,-1.282,0.001,80,1
1090,-0.319,-1.215,-0.051,80,1
1091,-0.26,-1.157,-0.104,80,1
1092,-0.231,-1.1,-0.121,80,1
1093,-0.216,-1.029,-0.114,80,1
1094,-0.197,-0.952,-0.112,80,1
1095,-0.181,-0.88,-0.122,80,1
1096,-0.164,-0.849,-0.128,80,1
1097,-0.143,-0.851,-0.129,80,1
1098,-0.123,-0.865,-0.132,80,1
1099,-0.114,-0.919,-0.132,80,1
1100,-0.116,-0.981,-0.125,80,1
1101,-0.107,-1.056,-0.119,80,1
1102,-0.108,-1.145,-0.105,80,1
1103,-0.15,-1.104,-0.037,80,1
1104,-0.193,-1.017,0.053,80,1
1105,-0.203,-1.033,0.08,80,1
1106,-0.185,-1.058,0.076,80,1
1107,-0.227,-1.036,0.108,80,1
1108,-0.281,-0.965,0.115,80,1
1109,-0.309,-0.884,0.067,80,1
1110,-0.341,-0.852,0.025,80,1
1111,-0.343,-0.871,0.008,80,1
1112,-0.332,-0.911,0.028,80,1
1113,-0.314,-0.941,0.065,80,1
1114,-0.315,-0.992,0.087,80,1
1115,-0.33,-1.082,0.066,80,1
1116,-0.364,-1.246,0.036,80,1
1117,-0.383,-1.296,0.015,80,1
1118,-0.341,-1.196,-0.034,80,1
1119,-0.285,-1.15,-0.085,80,1
1120,-0.26,-1.114,-0.107,80,1
1121,-0.249,-1.04,-0.106,80,1
1122,-0.231,-0.944,-0.104,80,1
1123,-0.214,-0.867,-0.113,80,1
1124,-0.201,-0.836,-0.119,80,1
1125,-0.177,-0.826,-0.12,80,1
1126,-0.149,-0.847,-0.117,80,1
1127,-0.134,-0.908,-0.112,80,1
1128,-0.128,-0.985,-0.106,80,1
1129,-0.125,-1.047,-0.095,80,1
1130,-0.116,-1.116,-0.086,80,1
1131,-0.115,-1.17,-0.079,80,1
1132,-0.143,-1.118,-0.026,80,1
1133,-0.176,-1.043,0.042,80,1
1134,-0.192,-1.015,0.054,80,1
1135,-0.187,-0.992,0.044,80,1
1136,-0.194,-0.954,0.053,80,1
1137,-0.23,-0.907,0.053,80,1
1138,-0.276,-0.88,0.035,80,1
1139,-0.324,-0.885,0.016,80,1
1140,-0.357,-0.909,0.011,80,1
1141,-0.362,-0.941,0.04,80,1
1142,-0.339,-0.967,0.079,80,1
1143,-0.319,-0.997,0.102,80,1
1144,-0.303,-1.037,0.087,80,1
1145,-0.313,-1.147,0.054,80,1
1146,-0.35,-1.254,0.04,80,1
1147,-0.345,-1.23,0.008,80,1
1148,-0.302,-1.168,-0.054,80,1
1149,-0.269,-1.143,-0.11,80,1
1150,-0.245,-1.1,-0.137,80,1
1151,-0.223,-1.014,-0.139,80,1
1152,-0.208,-0.934,-0.136,80,1
1153,-0.199,-0.891,-0.143,80,1
1154,-0.182,-0.873,-0.145,80,1
1155,-0.153,-0.852,-0.14,80,1
1156,-0.132,-0.853,-0.133,80,1
1157,-0.125,-0.903,-0.124,80,1
1158,-0.124,-0.962,-0.114,80,1
1159,-0.122,-1.013,-0.091,80,1
1160,-0.12,-1.112,-0.07,80,1
1161,-0.139,-1.14,-0.023,80,1
1162,-0.17,-1.082,0.054,80,1
1163,-0.185,-1.078,0.084,80,1
1164,-0.186,-1.092,0.072,80,1
1165,-0.197,-1.055,0.09,80,1
1166,-0.228,-0.958,0.121,80,1
1167,-0.276,-0.868,0.105,80,1
1168,-0.323,-0.84,0.054,80,1
1169,-0.35,-0.856,0.022,80,1
1170,-0.352,-0.884,0.025,80,1
1171,-0.329,-0.917,0.043,80,1
1172,-0.307,-0.974,0.059,80,1
1173,-0.301,-1.028,0.06,80,1
1174,-0.315,-1.113,0.048,80,1
1175,-0.362,-1.228,0.056,80,1
1176,-0.388,-1.226,0.046,80,1
1177,-0.352,-1.151,-0.01,80,1
1178,-0.306,-1.129,-0.057,80,1
1179,-0.27,-1.123,-0.078,80,1
1180,-0.238,-1.068,-0.094,80,1
1181,-0.218,-0.979,-0.101,80,1
1182,-0.214,-0.905,-0.093,80,1
1183,-0.207,-0.868,-0.091,80,1
1184,-0.178,-0.857,-0.099,80,1
1185,-0.146,-0.878,-0.104,80,1
1186,-0.13,-0.928,-0.102,80,1
1187,-0.124,-0.984,-0.097,80,1
1188,-0.117,-1.034,-0.094,80,1
1189,-0.104,-1.109,-0.098,80,1
1190,-0.105,-1.125,-0.076,80,1
1191,-0.139,-1.07,0,80,1
1192,-0.163,-1.059,0.049,80,1
1193,-0.169,-1.067,0.057,80,1
1194,-0.168,-1.037,0.075,80,1
1195,-0.189,-0.966,0.095,80,1
1196,-0.255,-0.905,0.092,80,1
1197,-0.317,-0.879,0.051,80,1
1198,-0.362,-0.902,0.008,80,1
1199,-0.38,-0.949,0.007,80,1
1200,-0.37,-0.975,0.041,80,1
1201,-0.361,-0.991,0.075,80,1
1202,-0.366,-1.017,0.09,80,1
1203,-0.363,-1.07,0.073,80,1
1204,-0.382,-1.189,0.071,80,1
1205,-0.394,-1.233,0.058,80,1
1206,-0.355,-1.197,-0.005,80,1
1207,-0.308,-1.211,-0.072,80,1
1208,-0.276,-1.217,-0.124,80,1
1209,-0.226,-1.083,-0.152,80,1
1210,-0.217,-1.001,-0.146,80,1
1211,-0.214,-0.928,-0.141,80,1
1212,-0.196,-0.865,-0.137,80,1
1213,-0.164,-0.828,-0.129,80,1
1214,-0.137,-0.847,-0.125,80,1
1215,-0.114,-0.914,-0.142,80,1
1216,-0.087,-0.993,-0.179,80,1
1217,-0.075,-1.051,-0.18,80,1
1218,-0.089,-1.097,-0.127,80,1
1219,-0.128,-1.07,-0.057,80,1
1220,-0.169,-1.018,0.037,80,1
1221,-0.19,-1.064,0.122,80,1
1222,-0.195,-1.145,0.146,80,1
1223,-0.256,-1.17,0.171,80,1
1224,-0.33,-1.094,0.175,80,1
1225,-0.382,-1.002,0.119,80,1
1226,-0.436,-0.96,0.072,80,1
1227,-0.441,-0.921,0.05,80,1
1228,-0.422,-0.897,0.047,80,1
1229,-0.403,-0.901,0.061,80,1
1230,-0.388,-0.941,0.052,80,1
1231,-0.37,-1.009,0.018,80,1
1232,-0.353,-1.135,-0.017,80,1
1233,-0.352,-1.284,-0.024,80,1
1234,-0.334,-1.284,-0.032,80,1
1235,-0.277,-1.208,-0.088,80,1
1236,-0.225,-1.187,-0.133,80,1
1237,-0.198,-1.12,-0.13,80,1
1238,-0.177,-0.981,-0.112,80,1
1239,-0.166,-0.848,-0.1,80,1
1240,-0.171,-0.768,-0.1,80,1
1241,-0.172,-0.729,-0.087,80,1
1242,-0.157,-0.702,-0.065,80,1
1243,-0.14,-0.699,-0.057,80,1
1244,-0.149,-0.767,-0.043,80,1
1245,-0.174,-0.909,-0.02,80,1
1246,-0.191,-1.079,-0.011,80,1
1247,-0.181,-1.271,-0.049,80,1
1248,-0.179,-1.407,-0.08,80,1
1249,-0.224,-1.334,-0.002,80,1
1250,-0.28,-1.195,0.097,80,1
1251,-0.283,-1.107,0.094,80,1
1252,-0.231,-1.017,0.04,80,1
1253,-0.197,-0.925,0.012,80,1
1254,-0.217,-0.828,-0.007,80,1
1255,-0.256,-0.766,-0.023,80,1
1256,-0.279,-0.755,-0.015,80,1
1257,-0.275,-0.782,0.003,80,1
1258,-0.263,-0.821,0.026,80,1
1259,-0.266,-0.861,0.075,80,1
1260,-0.274,-0.909,0.135,80,1
1261,-0.255,-0.982,0.14,80,1
1262,-0.228,-1.206,0.1,80,1
1263,-0.232,-1.378,0.041,80,1
1264,-0.239,-1.294,-0.036,80,1
1265,-0.23,-1.168,-0.089,80,1
1266,-0.245,-1.093,-0.101,80,1
1267,-0.265,-1.033,-0.092,80,1
1268,-0.249,-0.939,-0.095,80,1
1269,-0.228,-0.832,-0.113,80,1
1270,-0.211,-0.769,-0.121,80,1
1271,-0.182,-0.753,-0.122,80,1
1272,-0.144,-0.806,-0.124,80,1
1273,-0.119,-0.926,-0.138,80,1
1274,-0.116,-1.031,-0.164,80,1
1275,-0.125,-1.095,-0.174,80,1
1276,-0.128,-1.202,-0.169,80,1
1277,-0.158,-1.235,-0.103,80,1
1278,-0.205,-1.121,0.034,80,1
1279,-0.195,-1.064,0.105,80,1
1280,-0.147,-1.054,0.092,80,1
1281,-0.114,-0.999,0.087,80,1
1282,-0.144,-0.907,0.101,80,1
1283,-0.222,-0.808,0.088,80,1
1284,-0.266,-0.747,0.033,80,1
1285,-0.286,-0.759,-0.004,80,1
1286,-0.295,-0.817,-0.002,80,1
1287,-0.279,-0.874,0.018,80,1
1288,-0.266,-0.926,0.044,80,1
1289,-0.282,-0.989,0.056,80,1
1290,-0.303,-1.079,0.028,80,1
1291,-0.333,-1.226,0.012,80,1
1292,-0.363,-1.313,0.018,80,1
1293,-0.342,-1.267,-0.019,80,1
1294,-0.296,-1.207,-0.08,80,1
1295,-0.262,-1.144,-0.116,80,1
1296,-0.241,-1.055,-0.116,80,1
1297,-0.24,-0.952,-0.103,80,1
1298,-0.259,-0.87,-0.119,80,1
1299,-0.217,-0.817,-0.136,80,1
1300,-0.125,-0.789,-0.111,80,1
1301,-0.073,-0.823,-0.089,80,1
1302,-0.073,-0.92,-0.117,80,1
1303,-0.101,-1.019,-0.149,80,1
1304,-0.122,-1.057,-0.113,80,1
1305,-0.12,-1.09,-0.05,80,1
1306,-0.104,-1.145,-0.039,80,1
1307,-0.091,-1.127,-0.038,80,1
1308,-0.125,-1.088,0.025,80,1
1309,-0.168,-1.083,0.12,80,1
1310,-0.171,-1.039,0.153,80,1
1311,-0.177,-0.942,0.138,80,1
1312,-0.215,-0.851,0.117,80,1
1313,-0.264,-0.81,0.062,80,1
1314,-0.299,-0.831,-0.008,80,1
1315,-0.319,-0.883,-0.022,80,1
1316,-0.327,-0.918,0.02,80,1
1317,-0.331,-0.945,0.065,80,1
1318,-0.338,-0.994,0.086,80,1
1319,-0.342,-1.068,0.076,80,1
1320,-0.361,-1.208,0.066,80,1
1321,-0.388,-1.291,0.059,80,1
1322,-0.364,-1.254,-0.002,80,1
1323,-0.304,-1.245,-0.099,80,1
1324,-0.254,-1.23,-0.157,80,1
1325,-0.215,-1.134,-0.16,80,1
1326,-0.194,-1.004,-0.144,80,1
1327,-0.197,-0.897,-0.137,80,1
1328,-0.203,-0.826,-0.137,80,1
1329,-0.187,-0.812,-0.145,80,1
1330,-0.135,-0.821,-0.168,80,1
1331,-0.099,-0.812,-0.18,80,1
1332,-0.105,-0.848,-0.158,80,1
1333,-0.122,-0.95,-0.114,80,1
1334,-0.125,-1.08,-0.07,80,1
1335,-0.093,-1.228,-0.096,80,1
1336,-0.076,-1.254,-0.118,80,1
1337,-0.126,-1.193,-0.04,80,1
1338,-0.178,-1.166,0.005,80,1
1339,-0.18,-1.111,0.02,80,1
1340,-0.168,-1.002,0.073,80,1
1341,-0.185,-0.886,0.102,80,1
1342,-0.233,-0.81,0.056,80,1
1343,-0.278,-0.798,-0.011,80,1
1344,-0.297,-0.834,-0.031,80,1
1345,-0.301,-0.88,-0.009,80,1
1346,-0.309,-0.929,0.039,80,1
1347,-0.334,-0.986,0.095,80,1
1348,-0.335,-1.055,0.107,80,1
1349,-0.333,-1.217,0.1,80,1
1350,-0.345,-1.312,0.085,80,1
1351,-0.326,-1.249,0.024,80,1
1352,-0.292,-1.231,-0.051,80,1
1353,-0.27,-1.25,-0.125,80,1
1354,-0.267,-1.26,-0.208,80,1
1355,-0.246,-1.215,-0.285,80,1
1356,-0.184,-1.119,-0.298,80,1
1357,-0.128,-1.015,-0.269,80,1
1358,-0.106,-0.881,-0.252,80,1
1359,-0.089,-0.748,-0.224,80,1
1360,-0.072,-0.679,-0.173,80,1
1361,-0.083,-0.696,-0.12,80,1
1362,-0.124,-0.785,-0.064,80,1
1363,-0.153,-0.937,-0.014,80,1
1364,-0.156,-1.15,-0.023,80,1
1365,-0.18,-1.271,-0.031,80,1
1366,-0.217,-1.256,0.029,80,1
1367,-0.241,-1.213,0.068,80,1
1368,-0.255,-1.146,0.049,80,1
1369,-0.275,-1.037,0.016,80,1
1370,-0.303,-0.922,-0.009,80,1
1371,-0.332,-0.854,-0.037,80,1
1372,-0.371,-0.849,-0.059,80,1
1373,-0.401,-0.894,-0.037,80,1
1374,-0.396,-0.928,0.002,80,1
1375,-0.387,-0.952,0.045,80,1
1376,-0.387,-1.002,0.089,80,1
1377,-0.369,-1.06,0.089,80,1
1378,-0.345,-1.173,0.061,80,1
1379,-0.342,-1.26,0.042,80,1
1380,-0.336,-1.215,0.007,80,1
1381,-0.316,-1.146,-0.044,80,1
1382,-0.291,-1.111,-0.091,80,1
1383,-0.268,-1.087,-0.117,80,1
1384,-0.243,-1.038,-0.122,80,1
1385,-0.216,-0.96,-0.127,80,1
1386,-0.195,-0.887,-0.134,80,1
1387,-0.174,-0.845,-0.133,80,1
1388,-0.151,-0.84,-0.133,80,1
1389,-0.112,-0.887,-0.149,80,1
1390,-0.04,-0.949,-0.17,80,1
1391,-0.002,-0.997,-0.159,80,1
1392,-0.021,-1.034,-0.118,80,1
1393,-0.05,-1.113,-0.097,80,1
1394,-0.085,-1.172,-0.067,80,1
1395,-0.143,-1.131,0.029,80,1
1396,-0.191,-1.082,0.129,80,1
1397,-0.187,-1.068,0.154,80,1
1398,-0.194,-1.057,0.112,80,1
1399,-0.266,-0.988,0.04,80,1
1400,-0.371,-0.901,-0.018,80,1
1401,-0.423,-0.849,-0.061,80,1
1402,-0.404,-0.838,-0.076,80,1
1403,-0.371,-0.843,-0.045,80,1
1404,-0.364,-0.853,-0.01,80,1
1405,-0.376,-0.907,0.009,80,1
1406,-0.369,-0.977,0.007,80,1
1407,-0.35,-1.08,-0.004,80,1
1408,-0.362,-1.231,0.002,80,1
1409,-0.372,-1.267,-0.011,80,1
1410,-0.335,-1.194,-0.058,80,1
1411,-0.295,-1.138,-0.07,80,1
1412,-0.268,-1.07,-0.056,80,1
1413,-0.247,-0.957,-0.058,80,1
1414,-0.229,-0.856,-0.061,80,1
1415,-0.211,-0.805,-0.057,80,1
1416,-0.186,-0.792,-0.052,80,1
1417,-0.156,-0.787,-0.056,80,1
1418,-0.138,-0.806,-0.065,80,1
1419,-0.136,-0.882,-0.067,80,1
1420,-0.149,-0.977,-0.056,80,1
1421,-0.156,-1.08,-0.042,80,1
1422,-0.151,-1.224,-0.067,80,1
1423,-0.174,-1.226,-0.07,80,1
1424,-0.211,-1.111,0.011,80,1
1425,-0.216,-1.074,0.06,80,1
1426,-0.198,-1.044,0.033,80,1
1427,-0.182,-0.969,0.028,80,1
1428,-0.193,-0.874,0.049,80,1
1429,-0.224,-0.799,0.064,80,1
1430,-0.26,-0.771,0.072,80,1
1431,-0.296,-0.79,0.088,80,1
1432,-0.308,-0.83,0.105,80,1
1433,-0.307,-0.883,0.115,80,1
1434,-0.32,-0.945,0.114,80,1
1435,-0.334,-1.005,0.094,80,1
1436,-0.337,-1.072,0.069,80,1
1437,-0.363,-1.168,0.061,80,1
1438,-0.395,-1.236,0.049,80,1
1439,-0.385,-1.25,0.001,80,1
1440,-0.342,-1.211,-0.036,80,1
1441,-0.291,-1.118,-0.038,80,1
1442,-0.254,-1.025,-0.035,80,1
1443,-0.219,-0.947,-0.044,80,1
1444,-0.185,-0.875,-0.056,80,1
1445,-0.156,-0.835,-0.06,80,1
1446,-0.129,-0.803,-0.072,80,1
1447,-0.115,-0.771,-0.086,80,1
1448,-0.125,-0.788,-0.069,80,1
1449,-0.145,-0.875,-0.03,81,1
1450,-0.157,-0.984,0,81,1
1451,-0.147,-1.105,-0.008,81,1
1452,-0.149,-1.195,-0.025,81,1
1453,-0.19,-1.164,0.031,81,1
1454,-0.226,-1.112,0.115,81,1
1455,-0.238,-1.093,0.131,81,1
1456,-0.228,-1.032,0.109,81,1
1457,-0.214,-0.939,0.105,81,1
1458,-0.224,-0.863,0.115,81,1
1459,-0.241,-0.822,0.117,81,1
1460,-0.26,-0.849,0.128,81,1
1461,-0.26,-0.904,0.133,81,1
1462,-0.26,-0.957,0.131,81,1
1463,-0.253,-1.006,0.115,81,1
1464,-0.243,-1.051,0.083,81,1
1465,-0.254,-1.112,0.058,81,1
1466,-0.301,-1.171,0.048,81,1
1467,-0.33,-1.204,0.012,81,1
1468,-0.308,-1.206,-0.043,81,1
1469,-0.268,-1.163,-0.07,81,1
1470,-0.233,-1.076,-0.067,81,1
1471,-0.206,-0.973,-0.061,81,1
1472,-0.192,-0.913,-0.054,81,1
1473,-0.175,-0.873,-0.048,81,1
1474,-0.147,-0.824,-0.044,81,1
1475,-0.127,-0.804,-0.036,81,1
1476,-0.117,-0.831,-0.031,81,1
1477,-0.115,-0.911,-0.027,81,1
1478,-0.116,-1.009,-0.019,81,1
1479,-0.113,-1.123,-0.037,81,1
1480,-0.139,-1.167,-0.047,81,1
1481,-0.19,-1.095,0.014,81,1
1482,-0.216,-1.062,0.079,81,1
1483,-0.212,-1.059,0.067,81,1
1484,-0.198,-1.006,0.032,81,1
1485,-0.204,-0.94,0.035,81,1
1486,-0.237,-0.888,0.05,81,1
1487,-0.264,-0.859,0.052,81,1
1488,-0.27,-0.861,0.06,81,1
1489,-0.26,-0.882,0.078,81,1
1490,-0.252,-0.916,0.095,81,1
1491,-0.253,-0.952,0.105,81,1
1492,-0.254,-0.993,0.093,81,1
1493,-0.254,-1.099,0.055,81,1
1494,-0.289,-1.238,0.045,81,1
1495,-0.333,-1.257,0.034,81,1
1496,-0.315,-1.191,-0.036,81,1
1497,-0.26,-1.168,-0.105,81,1
1498,-0.206,-1.142,-0.128,81,1
1499,-0.17,-1.057,-0.128,81,1
1500,-0.167,-0.971,-0.124,81,1
1501,-0.172,-0.91,-0.119,81,1
1502,-0.158,-0.847,-0.116,81,1
1503,-0.131,-0.794,-0.11,81,1
1504,-0.11,-0.785,-0.104,81,1
1505,-0.105,-0.831,-0.104,81,1
1506,-0.112,-0.914,-0.1,81,1
1507,-0.119,-0.988,-0.088,81,1
1508,-0.122,-1.093,-0.089,81,1
1509,-0.149,-1.167,-0.072,81,1
1510,-0.209,-1.135,0.009,81,1
1511,-0.235,-1.115,0.071,81,1
1512,-0.214,-1.105,0.048,81,1
1513,-0.197,-1.043,0.023,81,1
1514,-0.208,-0.942,0.035,81,1
1515,-0.239,-0.86,0.045,81,1
1516,-0.265,-0.837,0.052,81,1
1517,-0.267,-0.847,0.063,81,1
1518,-0.255,-0.863,0.072,81,1
1519,-0.253,-0.886,0.092,81,1
1520,-0.256,-0.921,0.113,81,1
1521,-0.251,-0.969,0.109,81,1
1522,-0.241,-1.07,0.071,81,1
1523,-0.262,-1.222,0.035,81,1
1524,-0.303,-1.28,-0.007,81,1
1525,-0.3,-1.23,-0.09,81,1
1526,-0.264,-1.185,-0.16,81,1
1527,-0.242,-1.133,-0.176,81,1
1528,-0.258,-1.037,-0.141,81,1
1529,-0.22,-0.912,-0.109,81,1
1530,-0.076,-0.752,-0.147,81,1
1531,-0.023,-0.663,-0.183,81,1
1532,-0.095,-0.699,-0.183,81,1
1533,-0.117,-0.809,-0.207,81,1
1534,-0.071,-0.972,-0.204,81,1
1535,-0.012,-1.136,-0.139,81,1
1536,0.034,-1.257,-0.107,81,1
1537,0.046,-1.325,-0.154,81,1
1538,-0.031,-1.267,-0.143,81,1
1539,-0.138,-1.122,-0.031,81,1
1540,-0.174,-1.05,0.033,81,1
1541,-0.145,-1.025,-0.001,81,1
1542,-0.15,-0.982,-0.025,81,1
1543,-0.199,-0.901,-0.006,81,1
1544,-0.246,-0.816,-0.01,81,1
1545,-0.295,-0.783,-0.023,81,1
1546,-0.314,-0.808,-0.012,81,1
1547,-0.31,-0.85,0.023,81,1
1548,-0.305,-0.875,0.07,81,1
1549,-0.319,-0.909,0.119,81,1
1550,-0.33,-0.959,0.135,81,1
1551,-0.303,-1.047,0.085,81,1
1552,-0.296,-1.198,0.03,81,1
1553,-0.341,-1.281,0.014,81,1
1554,-0.363,-1.249,-0.027,81,1
1555,-0.335,-1.226,-0.113,81,1
1556,-0.294,-1.212,-0.162,81,1
1557,-0.26,-1.151,-0.137,81,1
1558,-0.19,-1.044,-0.131,81,1
1559,-0.113,-0.906,-0.17,81,1
1560,-0.127,-0.823,-0.189,81,1
1561,-0.158,-0.818,-0.204,81,1
1562,-0.131,-0.826,-0.216,81,1
1563,-0.09,-0.865,-0.196,81,1
1564,-0.059,-0.929,-0.165,81,1
1565,-0.062,-1.024,-0.138,81,1
1566,-0.08,-1.136,-0.117,81,1
1567,-0.084,-1.241,-0.119,81,1
1568,-0.082,-1.225,-0.102,81,1
1569,-0.087,-1.103,-0.032,81,1
1570,-0.09,-1.038,0.016,81,1
1571,-0.104,-1.003,0.002,81,1
1572,-0.161,-0.975,0.001,81,1
1573,-0.22,-0.95,0.004,81,1
1574,-0.257,-0.927,-0.04,81,1
1575,-0.282,-0.938,-0.072,81,1
1576,-0.312,-0.966,-0.044,81,1
1577,-0.369,-0.991,0.039,81,1
1578,-0.429,-1.013,0.125,81,1
1579,-0.469,-1.045,0.152,81,1
1580,-0.467,-1.086,0.131,81,1
1581,-0.414,-1.156,0.101,81,1
1582,-0.363,-1.221,0.079,81,1
1583,-0.342,-1.251,0.036,81,1
1584,-0.334,-1.318,-0.031,81,1
1585,-0.306,-1.373,-0.088,81,1
1586,-0.234,-1.354,-0.106,81,1
1587,-0.167,-1.263,-0.104,81,1
1588,-0.139,-1.15,-0.109,81,1
1589,-0.136,-1.087,-0.1,81,1
1590,-0.117,-1.016,-0.094,81,1
1591,-0.07,-0.874,-0.145,81,1
1592,-0.067,-0.819,-0.23,81,1
1593,-0.09,-0.81,-0.302,81,1
1594,-0.067,-0.729,-0.308,81,1
1595,-0.024,-0.726,-0.232,81,1
1596,-0.005,-0.85,-0.154,81,1
1597,-0.054,-1.014,-0.141,81,1
1598,-0.163,-1.194,-0.141,81,1
1599,-0.293,-1.381,-0.068,81,1
1600,-0.393,-1.448,0.008,81,1
1601,-0.401,-1.327,0.009,81,1
1602,-0.371,-1.156,-0.009,81,1
1603,-0.335,-1.042,-0.006,81,1
1604,-0.289,-0.973,0.05,81,1
1605,-0.242,-0.937,0.112,81,1
1606,-0.247,-0.919,0.088,81,1
1607,-0.346,-0.926,0.065,81,1
1608,-0.464,-0.992,0.059,81,1
1609,-0.523,-1.121,0.027,81,1
1610,-0.522,-1.262,-0.004,81,1
1611,-0.463,-1.287,-0.037,81,1
1612,-0.379,-1.259,-0.096,81,1
1613,-0.319,-1.309,-0.17,81,1
1614,-0.264,-1.315,-0.218,81,1
1615,-0.23,-1.279,-0.256,81,1
1616,-0.138,-1.196,-0.307,81,1
1617,-0.006,-0.989,-0.336,81,1
1618,0.031,-0.797,-0.32,81,1
1619,0.011,-0.699,-0.269,81,1
1620,-0.006,-0.7,-0.197,81,1
1621,-0.014,-0.79,-0.14,81,1
1622,-0.038,-0.912,-0.121,81,1
1623,-0.082,-1.045,-0.123,81,1
1624,-0.108,-1.197,-0.167,81,1
1625,-0.152,-1.28,-0.211,81,1
1626,-0.239,-1.206,-0.131,81,1
1627,-0.284,-1.123,0.006,81,1
1628,-0.269,-1.096,0.022,81,1
1629,-0.247,-1.066,-0.033,81,1
1630,-0.245,-1.013,-0.041,81,1
1631,-0.264,-0.932,-0.024,81,1
1632,-0.281,-0.859,-0.022,81,1
1633,-0.311,-0.846,-0.004,81,1
1634,-0.335,-0.876,0.047,81,1
1635,-0.343,-0.901,0.09,81,1
1636,-0.36,-0.946,0.102,81,1
1637,-0.383,-1.033,0.081,81,1
1638,-0.399,-1.169,0.032,81,1
1639,-0.403,-1.26,-0.013,81,1
1640,-0.37,-1.221,-0.064,81,1
1641,-0.317,-1.186,-0.128,81,1
1642,-0.277,-1.21,-0.179,81,1
1643,-0.236,-1.207,-0.213,81,1
1644,-0.174,-1.119,-0.225,81,1
1645,-0.108,-0.985,-0.204,81,1
1646,-0.07,-0.877,-0.19,81,1
1647,-0.062,-0.817,-0.194,81,1
1648,-0.062,-0.797,-0.178,81,1
1649,-0.053,-0.83,-0.155,81,1
1650,-0.045,-0.913,-0.135,81,1
1651,-0.034,-1.015,-0.128,81,1
1652,-0.031,-1.111,-0.134,81,1
1653,-0.062,-1.219,-0.151,81,1
1654,-0.116,-1.213,-0.149,81,1
1655,-0.179,-1.096,-0.094,81,1
1656,-0.218,-1.063,-0.04,81,1
1657,-0.226,-1.078,-0.048,81,1
1658,-0.237,-1.061,-0.073,81,1
1659,-0.275,-1.018,-0.071,81,1
1660,-0.32,-0.964,-0.07,81,1
1661,-0.344,-0.92,-0.063,81,1
1662,-0.346,-0.903,-0.02,81,1
1663,-0.332,-0.913,0.018,81,1
1664,-0.336,-0.936,0.042,81,1
1665,-0.366,-0.975,0.072,81,1
1666,-0.383,-1.074,0.07,81,1
1667,-0.382,-1.253,0.037,81,1
1668,-0.363,-1.296,-0.006,81,1
1669,-0.321,-1.171,-0.052,81,1
1670,-0.281,-1.138,-0.095,81,1
1671,-0.25,-1.175,-0.147,81,1
1672,-0.221,-1.167,-0.179,81,1
1673,-0.179,-1.12,-0.185,81,1
1674,-0.036,-1.013,-0.173,81,1
1675,0.11,-0.869,-0.143,81,1
1676,0.151,-0.797,-0.151,81,1
1677,0.146,-0.806,-0.2,81,1
1678,0.127,-0.875,-0.22,81,1
1679,0.145,-0.985,-0.213,81,1
1680,0.154,-1.084,-0.185,81,1
1681,0.102,-1.21,-0.166,81,1
1682,0.008,-1.361,-0.194,81,1
1683,-0.108,-1.328,-0.159,81,1
1684,-0.191,-1.152,-0.028,81,1
1685,-0.197,-1.042,0.033,81,1
1686,-0.161,-0.986,-0.002,81,1
1687,-0.163,-0.932,-0.025,81,1
1688,-0.226,-0.861,-0.039,81,1
1689,-0.282,-0.814,-0.052,81,1
1690,-0.295,-0.826,-0.036,81,1
1691,-0.292,-0.879,-0.013,81,1
1692,-0.298,-0.935,0.012,81,1
1693,-0.321,-0.981,0.039,81,1
1694,-0.336,-1.021,0.04,81,1
1695,-0.331,-1.141,-0.015,81,1
1696,-0.323,-1.275,-0.045,81,1
1697,-0.288,-1.256,-0.038,81,1
1698,-0.253,-1.156,-0.057,81,1
1699,-0.255,-1.119,-0.091,81,1
1700,-0.247,-1.109,-0.134,81,1
1701,-0.223,-1.016,-0.15,81,1
1702,-0.208,-0.922,-0.148,81,1
1703,-0.193,-0.904,-0.171,81,1
1704,-0.166,-0.876,-0.209,81,1
1705,-0.148,-0.82,-0.218,81,1
1706,-0.135,-0.826,-0.217,81,1
1707,-0.115,-0.891,-0.23,81,1
1708,-0.108,-0.955,-0.24,81,1
1709,-0.118,-1.034,-0.242,81,1
1710,-0.136,-1.163,-0.235,81,1
1711,-0.186,-1.204,-0.154,81,1
1712,-0.238,-1.088,-0.014,81,1
1713,-0.282,-0.983,0.089,81,1
1714,-0.294,-0.946,0.144,81,1
1715,-0.251,-0.903,0.152,81,1
1716,-0.27,-0.844,0.151,81,1
1717,-0.341,-0.806,0.13,81,1
1718,-0.371,-0.79,0.069,81,1
1719,-0.395,-0.802,0.035,81,1
1720,-0.445,-0.835,0.029,81,1
1721,-0.511,-0.867,0.031,81,1
1722,-0.582,-0.905,0.055,81,1
1723,-0.62,-0.982,0.054,81,1
1724,-0.65,-1.158,0.02,81,1
1725,-0.657,-1.258,-0.014,81,1
1726,-0.638,-1.218,-0.063,81,1
1727,-0.639,-1.207,-0.099,81,1
1728,-0.611,-1.171,-0.104,81,1
1729,-0.586,-1.049,-0.051,81,1
1730,-0.586,-0.854,0.043,81,1
1731,-0.554,-0.66,0.078,81,1
1732,-0.474,-0.553,0.133,81,1
1733,-0.363,-0.514,0.282,81,1
1734,-0.31,-0.542,0.408,81,1
1735,-0.312,-0.621,0.457,81,1
1736,-0.3,-0.672,0.496,81,1
1737,-0.289,-0.668,0.577,81,1
1738,-0.27,-0.631,0.651,81,1
1739,-0.279,-0.583,0.755,81,1
1740,-0.347,-0.546,0.765,81,1
1741,-0.368,-0.578,0.759,81,1
1742,-0.315,-0.61,0.824,81,1
1743,-0.24,-0.563,0.88,81,1
1744,-0.197,-0.519,0.942,81,1
1745,-0.249,-0.499,0.885,81,1
1746,-0.316,-0.486,0.76,81,1
1747,-0.259,-0.467,0.679,81,1
1748,-0.178,-0.574,0.704,81,1
1749,-0.194,-0.766,0.782,81,1
1750,-0.184,-0.745,0.682,81,1
1751,-0.077,-0.499,0.394,81,1
1752,-0.043,-0.409,0.332,81,1
1753,-0.217,-0.604,0.497,81,1
1754,-0.346,-0.773,0.66,81,1
1755,-0.349,-0.663,0.833,81,1
1756,-0.366,-0.438,0.971,81,1
1757,-0.402,-0.385,0.954,81,1
1758,-0.484,-0.475,0.794,81,1
1759,-0.482,-0.545,0.667,81,1
1760,-0.385,-0.53,0.589,81,1
1761,-0.325,-0.474,0.571,81,1
1762,-0.213,-0.414,0.546,81,1
1763,-0.057,-0.414,0.411,81,1
1764,0.046,-0.524,0.229,81,1
1765,0.151,-0.873,0.13,81,1
1766,0.134,-1.442,0.017,81,1
1767,-0.169,-1.703,-0.299,81,1
1768,-0.384,-1.699,-0.344,81,1
1769,-0.353,-1.614,-0.075,81,1
1770,-0.321,-1.254,0.034,81,1
1771,-0.254,-0.909,0.063,81,1
1772,-0.125,-0.792,0.101,81,1
1773,-0.051,-0.75,0.056,81,1
1774,-0.048,-0.697,-0.066,81,1
1775,-0.102,-0.687,-0.14,81,1
1776,-0.234,-0.744,-0.15,81,1
1777,-0.36,-0.849,-0.108,81,1
1778,-0.41,-0.92,-0.027,81,1
1779,-0.386,-0.944,0.079,81,1
1780,-0.268,-0.981,0.233,81,1
1781,-0.31,-1.059,0.291,81,1
1782,-0.425,-1.131,0.183,81,1
1783,-0.38,-1.236,0.095,81,1
1784,-0.322,-1.293,0.053,81,1
1785,-0.272,-1.267,-0.012,81,1
1786,-0.25,-1.255,-0.089,81,1
1787,-0.248,-1.168,-0.131,81,1
1788,-0.235,-1.005,-0.121,81,1
1789,-0.213,-0.858,-0.115,81,1
1790,-0.211,-0.778,-0.139,81,1
1791,-0.218,-0.764,-0.17,81,1
1792,-0.218,-0.796,-0.187,81,1
1793,-0.201,-0.867,-0.198,81,1
1794,-0.159,-0.975,-0.224,81,1
1795,-0.107,-1.075,-0.225,81,1
1796,-0.042,-1.144,-0.203,81,1
1797,-0.004,-1.173,-0.165,81,1
1798,-0.048,-1.073,-0.066,81,1
1799,-0.133,-0.933,0.062,81,1
1800,-0.187,-0.914,0.155,81,1
1801,-0.166,-0.929,0.188,81,1
1802,-0.145,-0.907,0.183,81,1
1803,-0.172,-0.871,0.17,81,1
1804,-0.217,-0.847,0.127,81,1
1805,-0.266,-0.87,0.08,81,1
1806,-0.293,-0.896,0.065,81,1
1807,-0.287,-0.882,0.059,81,1
1808,-0.268,-0.884,0.072,81,1
1809,-0.275,-0.944,0.113,81,1
1810,-0.306,-1.06,0.118,81,1
1811,-0.362,-1.252,0.102,81,1
1812,-0.413,-1.343,0.07,81,1
1813,-0.385,-1.293,-0.011,81,1
1814,-0.312,-1.255,-0.082,81,1
1815,-0.268,-1.196,-0.134,81,1
1816,-0.334,-1.085,-0.181,81,1
1817,-0.387,-0.993,-0.242,81,1
1818,-0.304,-0.947,-0.3,81,1
1819,-0.155,-0.897,-0.281,81,1
1820,-0.025,-0.834,-0.211,81,1
1821,0.011,-0.82,-0.164,81,1
1822,-0.01,-0.885,-0.181,81,1
1823,-0.052,-0.976,-0.181,81,1
1824,-0.062,-1.079,-0.179,81,1
1825,-0.072,-1.211,-0.208,81,1
1826,-0.124,-1.245,-0.157,81,1
1827,-0.16,-1.175,-0.072,81,1
1828,-0.17,-1.125,-0.021,81,1
1829,-0.169,-1.058,0.018,81,1
1830,-0.169,-0.947,0.052,81,1
1831,-0.187,-0.839,0.065,81,1
1832,-0.215,-0.777,0.041,81,1
1833,-0.247,-0.77,0.003,81,1
1834,-0.285,-0.808,-0.011,81,1
1835,-0.321,-0.87,0.019,81,1
1836,-0.333,-0.938,0.076,81,1
1837,-0.332,-1.013,0.115,81,1
1838,-0.333,-1.1,0.114,81,1
1839,-0.342,-1.245,0.093,81,1
1840,-0.366,-1.32,0.067,81,1
1841,-0.364,-1.257,0.035,81,1
1842,-0.33,-1.175,-0.006,81,1
1843,-0.291,-1.121,-0.06,81,1
1844,-0.251,-1.097,-0.104,81,1
1845,-0.225,-1.059,-0.086,81,1
1846,-0.064,-0.956,-0.071,81,1
1847,0.126,-0.764,-0.142,81,1
1848,0.056,-0.735,-0.226,81,1
1849,-0.062,-0.877,-0.285,81,1
1850,-0.042,-1.009,-0.293,81,1
1851,0.052,-1.107,-0.224,81,1
1852,0.149,-1.166,-0.166,81,1
1853,0.135,-1.319,-0.173,81,1
1854,0.032,-1.312,-0.154,81,1
1855,-0.059,-1.147,-0.07,81,1
1856,-0.072,-1.108,-0.027,81,1
1857,-0.046,-1.062,-0.027,81,1
1858,-0.08,-0.955,0.01,81,1
1859,-0.139,-0.845,0.048,81,1
1860,-0.196,-0.776,0.019,81,1
1861,-0.244,-0.772,-0.01,81,1
1862,-0.269,-0.897,0.034,81,1
1863,-0.287,-0.945,0.083,81,1
1864,-0.311,-0.992,0.134,81,1
1865,-0.317,-1.058,0.14,81,1
1866,-0.316,-1.189,0.12,81,1
1867,-0.327,-1.298,0.097,81,1
1868,-0.312,-1.281,0.031,81,1
1869,-0.267,-1.243,-0.062,81,1
1870,-0.237,-1.223,-0.114,81,1
1871,-0.227,-1.157,-0.123,81,1
1872,-0.221,-1.056,-0.124,81,1
1873,-0.206,-0.965,-0.14,81,1
1874,-0.174,-0.894,-0.171,81,1
1875,-0.152,-0.853,-0.2,81,1
1876,-0.126,-0.848,-0.216,81,1
1877,-0.076,-0.874,-0.222,81,1
1878,-0.046,-0.914,-0.2,81,1
1879,-0.043,-0.971,-0.155,81,1
1880,-0.029,-1.076,-0.134,81,1
1881,-0.033,-1.198,-0.16,81,1
1882,-0.087,-1.215,-0.129,81,1
1883,-0.146,-1.161,-0.021,81,1
1884,-0.174,-1.12,0.046,81,1
1885,-0.163,-1.051,0.069,81,1
1886,-0.15,-0.945,0.086,81,1
1887,-0.177,-0.854,0.084,81,1
1888,-0.222,-0.815,0.052,81,1
1889,-0.266,-0.838,0.017,82,1
1890,-0.295,-0.894,0.007,82,1
1891,-0.303,-0.944,0.025,82,1
1892,-0.307,-0.983,0.053,82,1
1893,-0.321,-1.026,0.067,82,1
1894,-0.335,-1.102,0.052,82,1
1895,-0.365,-1.217,0.034,82,1
1896,-0.393,-1.265,0.017,82,1
1897,-0.368,-1.227,-0.027,82,1
1898,-0.323,-1.197,-0.074,82,1
1899,-0.286,-1.171,-0.098,82,1
1900,-0.253,-1.106,-0.11,82,1
1901,-0.226,-1.017,-0.115,82,1
1902,-0.206,-0.958,-0.118,82,1
1903,-0.185,-0.942,-0.124,82,1
1904,-0.153,-0.938,-0.134,82,1
1905,-0.119,-0.938,-0.136,82,1
1906,-0.102,-0.952,-0.132,82,1
1907,-0.097,-0.98,-0.126,82,1
1908,-0.089,-1.001,-0.12,82,1
1909,-0.073,-1.063,-0.131,82,1
1910,-0.087,-1.088,-0.128,82,1
1911,-0.142,-1.019,-0.052,82,1
1912,-0.186,-0.991,0.031,82,1
1913,-0.2,-1.006,0.031,82,1
1914,-0.196,-0.997,-0.012,82,1
1915,-0.208,-0.965,-0.016,82,1
1916,-0.254,-0.952,-0.005,82,1
1917,-0.316,-0.976,-0.007,82,1
1918,-0.366,-1.027,0.004,82,1
1919,-0.386,-1.061,0.032,82,1
1920,-0.387,-1.046,0.061,82,1
1921,-0.395,-1.035,0.083,82,1
1922,-0.404,-1.082,0.087,82,1
1923,-0.425,-1.234,0.083,82,1
1924,-0.431,-1.336,0.05,82,1
1925,-0.375,-1.272,-0.034,82,1
1926,-0.296,-1.217,-0.124,82,1
1927,-0.239,-1.197,-0.162,82,1
1928,-0.223,-1.128,-0.165,82,1
1929,-0.225,-1.018,-0.186,82,1
1930,-0.232,-0.923,-0.215,82,1
1931,-0.269,-0.899,-0.229,82,1
1932,-0.295,-0.917,-0.222,82,1
1933,-0.334,-0.962,-0.178,82,1
1934,-0.402,-1.011,-0.079,82,1
1935,-0.452,-0.991,0.084,82,1
1936,-0.434,-0.907,0.293,82,1
1937,-0.412,-0.768,0.478,82,1
1938,-0.445,-0.604,0.619,82,1
1939,-0.46,-0.491,0.671,83,1
1940,-0.444,-0.513,0.613,83,1
1941,-0.392,-0.607,0.513,83,1
1942,-0.323,-0.643,0.423,83,1
1943,-0.277,-0.636,0.399,83,1
1944,-0.231,-0.64,0.393,83,1
1945,-0.153,-0.676,0.467,83,1
1946,-0.094,-0.67,0.675,83,1
1947,-0.168,-0.64,0.844,83,1
1948,-0.303,-0.722,0.939,83,1
1949,-0.283,-0.701,0.861,83,1
1950,-0.169,-0.387,0.641,83,1
1951,-0.193,-0.358,0.652,83,1
1952,-0.284,-0.615,0.969,83,1
1953,-0.349,-0.616,1.065,83,1
1954,-0.321,-0.319,0.763,83,1
1955,-0.235,-0.354,0.667,83,1
1956,-0.184,-0.646,0.873,83,1
1957,-0.195,-0.52,0.881,83,1
1958,-0.284,-0.354,0.72,83,1
1959,-0.281,-0.506,0.754,83,1
1960,-0.166,-0.551,0.791,83,1
1961,-0.118,-0.349,0.635,83,1
1962,-0.141,-0.472,0.717,83,1
1963,-0.188,-0.648,0.955,83,1
1964,-0.269,-0.396,0.87,83,1
1965,-0.264,-0.364,0.862,83,1
1966,-0.246,-0.57,1.025,83,1
1967,-0.215,-0.414,0.944,83,1
1968,-0.069,-0.501,0.996,83,1
1969,-0.088,-0.614,0.965,83,1
1970,-0.241,-0.367,0.717,83,1
1971,-0.23,-0.361,0.752,83,1
1972,-0.128,-0.428,0.783,83,1
1973,-0.101,-0.465,0.679,83,1
1974,-0.168,-0.551,0.688,83,1
1975,-0.212,-0.445,0.751,83,1
1976,-0.099,-0.293,0.78,83,1
1977,-0.02,-0.443,0.91,83,1
1978,-0.299,-0.687,0.983,83,1
1979,-0.277,-0.374,0.757,83,1
1980,-0.018,-0.201,0.683,83,1
1981,-0.17,-0.596,0.99,83,1
1982,-0.369,-0.659,1.152,83,1
1983,-0.356,-0.413,1.033,83,1
1984,-0.293,-0.267,0.821,83,1
1985,-0.318,-0.427,0.778,83,1
1986,-0.309,-0.574,0.889,83,1
1987,-0.181,-0.332,0.753,83,1
1988,-0.158,-0.347,0.598,83,1
1989,-0.165,-0.638,0.738,84,1
1990,-0.13,-0.593,0.868,84,1
1991,-0.22,-0.374,0.793,84,1
1992,-0.284,-0.33,0.761,84,1
1993,-0.232,-0.418,0.915,84,1
1994,-0.201,-0.59,1.104,84,1
1995,-0.291,-0.686,1.08,84,1
1996,-0.301,-0.608,0.888,84,1
1997,-0.158,-0.541,0.782,84,1
1998,-0.095,-0.492,0.75,84,1
1999,-0.159,-0.429,0.744,84,1
2000,-0.212,-0.342,0.761,84,1
2001,-0.235,-0.277,0.771,84,1
2002,-0.233,-0.262,0.791,84,1
2003,-0.202,-0.296,0.805,84,1
2004,-0.195,-0.335,0.795,84,1
2005,-0.213,-0.37,0.758,84,1
2006,-0.303,-0.538,0.606,84,1
2007,-0.216,-0.72,0.745,84,1
2008,-0.075,-0.768,1.106,84,1
2009,-0.199,-0.716,1.167,84,1
2010,-0.309,-0.607,1.078,84,1
2011,-0.29,-0.491,0.878,84,1
2012,-0.194,-0.324,0.655,84,1
2013,-0.129,-0.29,0.586,84,1
2014,-0.147,-0.498,0.655,84,1
2015,-0.144,-0.647,0.77,84,1
2016,-0.151,-0.61,0.783,84,1
2017,-0.156,-0.56,0.638,84,1
2018,-0.181,-0.613,0.489,84,1
2019,-0.26,-0.719,0.431,84,1
2020,-0.297,-0.782,0.423,84,1
2021,-0.26,-0.827,0.479,84,1
2022,-0.2,-0.837,0.504,84,1
2023,-0.101,-0.824,0.388,84,1
2024,-0.039,-0.904,0.272,84,1
2025,-0.073,-1.05,0.247,84,1
2026,-0.112,-1.188,0.185,84,1
2027,-0.217,-1.296,0.067,84,1
2028,-0.45,-1.325,0.029,84,1
2029,-0.603,-1.274,0.032,84,1
2030,-0.589,-1.234,0.073,84,1
2031,-0.571,-1.226,0.161,84,1
2032,-0.573,-1.182,0.187,84,1
2033,-0.554,-1.155,0.179,84,1
2034,-0.523,-1.221,0.172,84,1
2035,-0.513,-1.326,0.109,84,1
2036,-0.499,-1.409,-0.035,84,1
2037,-0.449,-1.462,-0.183,84,1
2038,-0.35,-1.464,-0.261,84,1
2039,-0.281,-1.375,-0.264,85,1
2040,-0.26,-1.216,-0.238,85,1
2041,-0.27,-1.056,-0.204,85,1
2042,-0.26,-0.872,-0.121,85,1
2043,-0.219,-0.713,0.007,85,1
2044,-0.219,-0.649,0.152,85,1
2045,-0.24,-0.71,0.245,85,1
2046,-0.298,-0.816,0.259,85,1
2047,-0.369,-0.895,0.273,85,1
2048,-0.381,-0.928,0.29,85,1
2049,-0.354,-0.914,0.293,85,1
2050,-0.311,-0.858,0.315,85,1
2051,-0.238,-0.733,0.276,85,1
2052,-0.165,-0.616,0.243,85,1
2053,-0.176,-0.587,0.294,85,1
2054,-0.297,-0.665,0.302,85,1
2055,-0.473,-0.843,0.261,85,1
2056,-0.581,-1.022,0.225,85,1
2057,-0.646,-1.127,0.206,85,1
2058,-0.726,-1.165,0.192,85,1
2059,-0.71,-1.169,0.16,85,1
2060,-0.68,-1.254,0.122,85,1
2061,-0.664,-1.329,0.049,85,1
2062,-0.555,-1.299,-0.076,85,1
2063,-0.433,-1.217,-0.15,85,1
2064,-0.356,-1.085,-0.135,85,1
2065,-0.301,-0.944,-0.095,85,1
2066,-0.263,-0.841,-0.074,85,1
2067,-0.221,-0.803,-0.08,85,1
2068,-0.177,-0.831,-0.098,85,1
2069,-0.144,-0.905,-0.111,85,1
2070,-0.123,-0.995,-0.105,85,1
2071,-0.085,-1.098,-0.094,85,1
2072,-0.012,-1.16,-0.096,85,1
2073,0.007,-1.199,-0.112,85,1
2074,-0.05,-1.163,-0.105,85,1
2075,-0.119,-1.072,-0.035,85,1
2076,-0.162,-1.033,0.017,85,1
2077,-0.19,-0.995,0.031,85,1
2078,-0.213,-0.929,0.05,85,1
2079,-0.255,-0.863,0.053,85,1
2080,-0.312,-0.857,0.04,85,1
2081,-0.345,-0.92,0.025,85,1
2082,-0.37,-1.003,0.014,85,1
2083,-0.383,-1.079,0.024,85,1
2084,-0.389,-1.123,0.055,85,1
2085,-0.407,-1.157,0.09,85,1
2086,-0.449,-1.262,0.121,85,1
2087,-0.44,-1.359,0.064,85,1
2088,-0.349,-1.374,-0.082,85,1
2089,-0.262,-1.353,-0.174,86,1
2090,-0.225,-1.295,-0.174,86,1
2091,-0.218,-1.176,-0.154,86,1
2092,-0.204,-1.058,-0.147,86,1
2093,-0.172,-0.981,-0.153,86,1
2094,-0.135,-0.913,-0.163,86,1
2095,-0.094,-0.901,-0.17,86,1
2096,-0.051,-0.944,-0.174,86,1
2097,-0.033,-0.989,-0.156,86,1
2098,-0.028,-1.036,-0.13,86,1
2099,-0.031,-1.073,-0.131,86,1
2100,-0.064,-1.064,-0.115,86,1
2101,-0.115,-1.065,-0.068,86,1
2102,-0.175,-1.126,-0.044,86,1
2103,-0.229,-1.191,-0.02,86,1
2104,-0.295,-1.212,0.019,86,1
2105,-0.41,-1.174,0.036,86,1
2106,-0.488,-1.103,0.039,86,1
2107,-0.475,-1.07,0.061,86,1
2108,-0.466,-1.074,0.062,86,1
2109,-0.503,-1.079,0.024,86,1
2110,-0.533,-1.091,0.008,86,1
2111,-0.51,-1.177,0.014,86,1
2112,-0.446,-1.321,0.015,86,1
2113,-0.353,-1.371,-0.031,86,1
2114,-0.264,-1.355,-0.115,86,1
2115,-0.216,-1.329,-0.16,86,1
2116,-0.206,-1.234,-0.178,86,1
2117,-0.203,-1.109,-0.195,86,1
2118,-0.151,-1.017,-0.235,86,1
2119,-0.079,-0.939,-0.277,86,1
2120,-0.081,-0.906,-0.291,86,1
2121,-0.071,-0.923,-0.318,86,1
2122,0.045,-0.968,-0.342,86,1
2123,0.138,-1.025,-0.285,86,1
2124,0.158,-1.118,-0.198,86,1
2125,0.111,-1.195,-0.168,86,1
2126,0,-1.226,-0.142,86,1
2127,-0.105,-1.248,-0.08,86,1
2128,-0.192,-1.208,-0.039,86,1
2129,-0.269,-1.114,-0.008,87,1
2130,-0.327,-1.018,0.038,87,1
2131,-0.364,-0.947,0.054,87,1
2132,-0.388,-0.939,0.039,87,1
2133,-0.409,-1.003,0.054,87,1
2134,-0.412,-1.08,0.085,87,1
2135,-0.396,-1.124,0.098,87,1
2136,-0.388,-1.156,0.094,87,1
2137,-0.408,-1.269,0.092,87,1
2138,-0.401,-1.369,0.028,87,1
2139,-0.328,-1.364,-0.111,87,1
2140,-0.241,-1.342,-0.197,87,1
2141,-0.193,-1.272,-0.194,87,1
2142,-0.18,-1.168,-0.165,87,1
2143,-0.129,-1.079,-0.185,87,1
2144,-0.071,-0.974,-0.22,87,1
2145,-0.073,-0.891,-0.195,87,1
2146,-0.11,-0.88,-0.208,87,1
2147,-0.118,-0.947,-0.267,87,1
2148,-0.081,-1.012,-0.251,87,1
2149,-0.031,-1.037,-0.176,87,1
2150,-0.001,-1.078,-0.108,87,1
2151,-0.027,-1.089,-0.061,87,1
2152,-0.084,-1.1,-0.023,87,1
2153,-0.159,-1.15,0.02,87,1
2154,-0.204,-1.142,0.077,87,1
2155,-0.232,-1.053,0.137,87,1
2156,-0.285,-0.941,0.156,87,1
2157,-0.326,-0.899,0.114,87,1
2158,-0.364,-0.948,0.032,87,1
2159,-0.404,-1.034,-0.017,87,1
2160,-0.415,-1.084,0,87,1
2161,-0.402,-1.096,0.039,87,1
2162,-0.415,-1.157,0.05,87,1
2163,-0.433,-1.251,0.034,87,1
2164,-0.385,-1.311,-0.009,87,1
2165,-0.297,-1.301,-0.072,87,1
2166,-0.243,-1.242,-0.107,87,1
2167,-0.222,-1.147,-0.111,87,1
2168,-0.211,-1.015,-0.104,87,1
2169,-0.193,-0.912,-0.101,87,1
2170,-0.168,-0.887,-0.122,87,1
2171,-0.135,-0.915,-0.196,87,1
2172,-0.067,-0.95,-0.346,87,1
2173,-0.048,-1.002,-0.354,87,1
2174,-0.025,-1.058,-0.208,87,1
2175,0.036,-1.147,-0.142,87,1
2176,0.046,-1.223,-0.1,87,1
2177,0.019,-1.207,-0.009,87,1
2178,-0.052,-1.194,0.099,87,1
2179,-0.108,-1.166,0.196,88,1
2180,-0.118,-1.056,0.243,88,1
2181,-0.141,-0.911,0.21,88,1
2182,-0.187,-0.782,0.104,88,1
2183,-0.251,-0.755,-0.019,88,1
2184,-0.339,-0.874,-0.098,88,1
2185,-0.4,-1.021,-0.121,88,1
2186,-0.42,-1.112,-0.093,88,1
2187,-0.438,-1.147,-0.055,88,1
2188,-0.493,-1.205,-0.016,88,1
2189,-0.575,-1.261,0.013,88,1
2190,-0.578,-1.273,-0.043,88,1
2191,-0.465,-1.303,-0.151,88,1
2192,-0.32,-1.293,-0.192,88,1
2193,-0.214,-1.19,-0.163,88,1
2194,-0.173,-1.045,-0.13,88,1
2195,-0.17,-0.934,-0.121,88,1
2196,-0.158,-0.899,-0.127,88,1
2197,-0.113,-0.947,-0.156,88,1
2198,-0.059,-1.025,-0.194,88,1
2199,-0.023,-1.084,-0.191,88,1
2200,-0.016,-1.112,-0.143,88,1
2201,-0.02,-1.147,-0.097,88,1
2202,-0.03,-1.115,-0.08,88,1
2203,-0.056,-1.03,-0.042,88,1
2204,-0.093,-1.043,0.009,88,1
2205,-0.137,-1.093,0.025,88,1
2206,-0.185,-1.067,0.035,88,1
2207,-0.238,-0.96,0.056,88,1
2208,-0.309,-0.869,0.066,88,1
2209,-0.375,-0.879,0.029,88,1
2210,-0.441,-0.986,-0.024,88,1
2211,-0.516,-1.113,-0.016,88,1
2212,-0.53,-1.176,0.043,88,1
2213,-0.504,-1.162,0.095,88,1
2214,-0.509,-1.174,0.123,88,1
2215,-0.522,-1.25,0.096,88,1
2216,-0.491,-1.319,-0.002,88,1
2217,-0.389,-1.385,-0.119,88,1
2218,-0.28,-1.38,-0.187,88,1
2219,-0.215,-1.259,-0.195,89,1
2220,-0.175,-1.108,-0.189,89,1
2221,-0.146,-0.991,-0.188,89,1
2222,-0.134,-0.901,-0.179,89,1
2223,-0.124,-0.827,-0.171,89,1
2224,-0.097,-0.798,-0.158,89,1
2225,-0.059,-0.827,-0.136,89,1
2226,-0.045,-0.903,-0.106,89,1
2227,-0.037,-1.016,-0.073,89,1
2228,-0.044,-1.141,-0.077,89,1
2229,-0.086,-1.221,-0.071,89,1
2230,-0.14,-1.296,-0.009,89,1
2231,-0.189,-1.333,0.035,89,1
2232,-0.224,-1.238,0.049,89,1
2233,-0.276,-1.074,0.06,89,1
2234,-0.329,-0.938,0.048,89,1
2235,-0.361,-0.895,0.013,89,1
2236,-0.379,-0.942,-0.009,89,1
2237,-0.387,-0.998,0.011,89,1
2238,-0.385,-1.028,0.053,89,1
2239,-0.401,-1.057,0.074,89,1
2240,-0.441,-1.135,0.065,89,1
2241,-0.479,-1.278,0.035,89,1
2242,-0.44,-1.343,-0.046,89,1
2243,-0.329,-1.345,-0.123,89,1
2244,-0.241,-1.365,-0.142,89,1
2245,-0.222,-1.285,-0.147,89,1
2246,-0.229,-1.148,-0.126,89,1
2247,-0.149,-1.046,-0.102,89,1
2248,-0.043,-0.963,-0.138,89,1
2249,0.009,-0.904,-0.215,89,1
2250,0.047,-0.88,-0.289,89,1
2251,0.07,-0.93,-0.321,89,1
2252,0.069,-1.034,-0.314,89,1
2253,0.043,-1.125,-0.297,89,1
2254,0.006,-1.169,-0.272,89,1
2255,-0.06,-1.149,-0.214,89,1
2256,-0.145,-1.133,-0.12,89,1
2257,-0.218,-1.166,-0.057,89,1
2258,-0.281,-1.149,-0.008,89,1
2259,-0.304,-1.037,0.05,89,1
2260,-0.327,-0.913,0.087,89,1
2261,-0.364,-0.883,0.089,89,1
2262,-0.383,-0.946,0.067,89,1
2263,-0.404,-1.03,0.058,89,1
2264,-0.421,-1.082,0.062,89,1
2265,-0.42,-1.108,0.07,89,1
2266,-0.415,-1.142,0.069,89,1
2267,-0.442,-1.234,0.072,89,1
2268,-0.453,-1.303,0.046,89,1
2269,-0.386,-1.307,-0.042,90,1
2270,-0.3,-1.289,-0.127,90,1
2271,-0.249,-1.209,-0.153,90,1
2272,-0.227,-1.077,-0.137,90,1
2273,-0.203,-0.958,-0.131,90,1
2274,-0.158,-0.887,-0.139,90,1
2275,-0.077,-0.842,-0.138,90,1
2276,-0.018,-0.862,-0.149,90,1
2277,-0.023,-0.977,-0.186,90,1
2278,-0.029,-1.094,-0.194,90,1
2279,-0.009,-1.157,-0.153,90,1
2280,0.027,-1.214,-0.137,90,1
2281,0.028,-1.199,-0.137,90,1
2282,-0.035,-1.163,-0.087,90,1
2283,-0.118,-1.181,-0.033,90,1
2284,-0.178,-1.139,-0.014,90,1
2285,-0.21,-1.027,-0.005,90,1
2286,-0.252,-0.915,0.014,90,1
2287,-0.319,-0.889,0.027,90,1
2288,-0.384,-0.968,0.02,90,1
2289,-0.431,-1.083,0.017,90,1
2290,-0.46,-1.145,0.041,90,1
2291,-0.483,-1.143,0.081,90,1
2292,-0.52,-1.194,0.1,90,1
2293,-0.559,-1.315,0.095,90,1
2294,-0.49,-1.36,0.025,90,1
2295,-0.36,-1.35,-0.106,90,1
2296,-0.284,-1.375,-0.209,90,1
2297,-0.237,-1.339,-0.213,90,1
2298,-0.179,-1.207,-0.172,90,1
2299,-0.129,-1.079,-0.142,90,1
2300,-0.15,-1.001,-0.117,90,1
2301,-0.177,-0.958,-0.167,90,1
2302,-0.155,-0.996,-0.262,90,1
2303,-0.092,-1.064,-0.304,90,1
2304,-0.028,-1.058,-0.267,90,1
2305,-0.006,-1.062,-0.166,90,1
2306,-0.006,-1.112,-0.081,90,1
2307,-0.022,-1.071,-0.066,90,1
2308,-0.028,-1.001,-0.063,90,1
2309,-0.063,-1.062,-0.014,91,1
2310,-0.154,-1.147,0.021,91,1
2311,-0.25,-1.145,0,91,1
2312,-0.354,-1.106,-0.009,91,1
2313,-0.467,-1.092,-0.022,91,1
2314,-0.507,-1.091,-0.049,91,1
2315,-0.489,-1.115,-0.007,91,1
2316,-0.514,-1.146,0.062,91,1
2317,-0.564,-1.147,0.081,91,1
2318,-0.561,-1.199,0.072,91,1
2319,-0.514,-1.3,0.059,91,1
2320,-0.442,-1.307,0.012,91,1
2321,-0.352,-1.289,-0.092,91,1
2322,-0.298,-1.34,-0.176,91,1
2323,-0.266,-1.323,-0.175,91,1
2324,-0.199,-1.189,-0.154,91,1
2325,-0.072,-0.991,-0.149,91,1
2326,0.05,-0.799,-0.132,91,1
2327,0.064,-0.765,-0.127,91,1
2328,0.027,-0.856,-0.175,91,1
2329,0.038,-0.947,-0.215,91,1
2330,0.04,-1.08,-0.198,91,1
2331,-0.01,-1.222,-0.147,91,1
2332,-0.057,-1.311,-0.117,91,1
2333,-0.077,-1.296,-0.099,91,1
2334,-0.124,-1.235,-0.033,91,1
2335,-0.186,-1.179,0.016,91,1
2336,-0.216,-1.069,0.024,91,1
2337,-0.226,-0.923,0.046,91,1
2338,-0.246,-0.797,0.059,91,1
2339,-0.281,-0.766,0.038,91,1
2340,-0.323,-0.855,0.008,91,1
2341,-0.365,-1.011,-0.002,91,1
2342,-0.401,-1.125,0.016,91,1
2343,-0.429,-1.15,0.059,91,1
2344,-0.429,-1.154,0.093,91,1
2345,-0.446,-1.213,0.109,91,1
2346,-0.464,-1.264,0.055,91,1
2347,-0.4,-1.274,-0.063,91,1
2348,-0.307,-1.24,-0.163,91,1
2349,-0.26,-1.157,-0.185,92,1
2350,-0.229,-1.081,-0.153,92,1
2351,-0.204,-1.023,-0.141,92,1
2352,-0.195,-0.994,-0.146,92,1
2353,-0.174,-0.99,-0.152,92,1
2354,-0.128,-1.005,-0.158,92,1
2355,-0.075,-1.039,-0.147,92,1
2356,-0.04,-1.055,-0.104,92,1
2357,-0.016,-1.07,-0.058,92,1
2358,-0.014,-1.091,-0.065,92,1
2359,-0.052,-1.067,-0.049,92,1
2360,-0.12,-1.079,0.027,92,1
2361,-0.171,-1.128,0.078,92,1
2362,-0.187,-1.107,0.063,92,1
2363,-0.232,-1.043,0.022,92,1
2364,-0.331,-0.991,0.005,92,1
2365,-0.415,-0.969,-0.027,92,1
2366,-0.455,-0.993,-0.082,92,1
2367,-0.482,-1.049,-0.087,92,1
2368,-0.476,-1.062,-0.048,92,1
2369,-0.463,-1.037,0.003,92,1
2370,-0.454,-1.074,0.042,92,1
2371,-0.458,-1.191,0.005,92,1
2372,-0.447,-1.335,-0.102,92,1
2373,-0.367,-1.409,-0.195,92,1
2374,-0.29,-1.323,-0.199,92,1
2375,-0.264,-1.15,-0.129,92,1
2376,-0.253,-0.996,-0.079,92,1
2377,-0.224,-0.874,-0.087,92,1
2378,-0.174,-0.788,-0.11,92,1
2379,-0.112,-0.765,-0.12,92,1
2380,-0.058,-0.831,-0.13,92,1
2381,-0.038,-0.987,-0.147,92,1
2382,-0.058,-1.1,-0.159,92,1
2383,-0.071,-1.159,-0.159,92,1
2384,-0.064,-1.231,-0.178,92,1
2385,-0.102,-1.225,-0.157,92,1
2386,-0.168,-1.173,-0.079,92,1
2387,-0.213,-1.119,-0.026,92,1
2388,-0.234,-1.037,0.016,92,1
2389,-0.244,-0.933,0.033,92,1
2390,-0.287,-0.868,0.028,92,1
2391,-0.348,-0.881,0.031,92,1
2392,-0.399,-0.947,0.037,92,1
2393,-0.438,-1.043,0.048,92,1
2394,-0.448,-1.124,0.065,92,1
2395,-0.427,-1.148,0.088,92,1
2396,-0.42,-1.169,0.107,92,1
2397,-0.447,-1.238,0.102,92,1
2398,-0.428,-1.295,0.014,92,1
2399,-0.343,-1.326,-0.115,93,1
2400,-0.257,-1.328,-0.17,93,1
2401,-0.198,-1.239,-0.158,93,1
2402,-0.184,-1.101,-0.137,93,1
2403,-0.183,-0.995,-0.133,93,1
2404,-0.175,-0.938,-0.133,93,1
2405,-0.159,-0.916,-0.127,93,1
2406,-0.116,-0.929,-0.134,93,1
2407,-0.063,-0.977,-0.142,93,1
2408,-0.04,-1.016,-0.124,93,1
2409,-0.037,-1.021,-0.08,93,1
2410,-0.035,-1.057,-0.054,93,1
2411,-0.049,-1.09,-0.055,93,1
2412,-0.1,-1.111,-0.013,93,1
2413,-0.168,-1.193,0.097,93,1
2414,-0.203,-1.217,0.138,93,1
2415,-0.237,-1.142,0.089,93,1
2416,-0.321,-1.067,0.041,93,1
2417,-0.389,-1.006,-0.027,93,1
2418,-0.425,-0.999,-0.085,93,1
2419,-0.449,-1.037,-0.055,93,1
2420,-0.441,-1.041,0.015,93,1
2421,-0.406,-1.03,0.057,93,1
2422,-0.384,-1.077,0.052,93,1
2423,-0.43,-1.26,0.04,93,1
2424,-0.432,-1.357,-0.017,93,1
2425,-0.336,-1.309,-0.12,93,1
2426,-0.261,-1.281,-0.159,93,1
2427,-0.238,-1.209,-0.138,93,1
2428,-0.226,-1.096,-0.113,93,1
2429,-0.19,-0.991,-0.109,93,1
2430,-0.156,-0.906,-0.113,93,1
2431,-0.134,-0.877,-0.115,93,1
2432,-0.1,-0.914,-0.134,93,1
2433,-0.062,-0.994,-0.162,93,1
2434,-0.051,-1.079,-0.16,93,1
2435,-0.043,-1.122,-0.138,93,1
2436,-0.042,-1.14,-0.143,93,1
2437,-0.081,-1.096,-0.116,93,1
2438,-0.138,-1.049,-0.031,93,1
2439,-0.182,-1.072,0.015,94,1
2440,-0.205,-1.089,0.038,94,1
2441,-0.226,-1.063,0.08,94,1
2442,-0.285,-1,0.097,94,1
2443,-0.362,-0.962,0.079,94,1
2444,-0.395,-1,0.042,94,1
2445,-0.415,-1.072,0.02,94,1
2446,-0.438,-1.059,0.036,94,1
2447,-0.417,-1.015,0.062,94,1
2448,-0.408,-1.145,0.072,94,1
2449,-0.424,-1.344,0.046,94,1
2450,-0.377,-1.402,-0.035,94,1
2451,-0.293,-1.382,-0.125,94,1
2452,-0.251,-1.32,-0.157,94,1
2453,-0.24,-1.176,-0.143,94,1
2454,-0.223,-1.009,-0.126,94,1
2455,-0.191,-0.885,-0.13,94,1
2456,-0.158,-0.832,-0.135,94,1
2457,-0.127,-0.83,-0.139,94,1
2458,-0.093,-0.866,-0.155,94,1
2459,-0.066,-0.938,-0.159,94,1
2460,-0.074,-1.017,-0.135,94,1
2461,-0.092,-1.086,-0.096,94,1
2462,-0.098,-1.154,-0.09,94,1
2463,-0.112,-1.178,-0.069,94,1
2464,-0.145,-1.181,-0.005,94,1
2465,-0.173,-1.171,0.015,94,1
2466,-0.173,-1.099,0.002,94,1
2467,-0.183,-0.991,0.005,94,1
2468,-0.24,-0.903,0.02,94,1
2469,-0.318,-0.888,0.016,94,1
2470,-0.391,-0.955,-0.002,94,1
2471,-0.454,-1.056,0.016,94,1
2472,-0.478,-1.115,0.058,94,1
2473,-0.465,-1.116,0.077,94,1
2474,-0.456,-1.156,0.067,94,1
2475,-0.466,-1.255,0.046,94,1
2476,-0.424,-1.305,-0.023,94,1
2477,-0.318,-1.331,-0.14,94,1
2478,-0.241,-1.344,-0.209,94,1
2479,-0.214,-1.243,-0.211,94,1
2480,-0.195,-1.096,-0.184,94,1
2481,-0.164,-0.983,-0.166,94,1
2482,-0.138,-0.891,-0.16,94,1
2483,-0.115,-0.839,-0.165,94,1
2484,-0.077,-0.873,-0.172,94,1
2485,-0.047,-0.982,-0.157,94,1
2486,-0.045,-1.068,-0.127,94,1
2487,-0.041,-1.145,-0.101,94,1
2488,-0.046,-1.187,-0.1,94,1
2489,-0.089,-1.134,-0.084,95,1
2490,-0.151,-1.097,-0.034,95,1
2491,-0.203,-1.122,0.022,95,1
2492,-0.232,-1.114,0.064,95,1
2493,-0.282,-1.033,0.072,95,1
2494,-0.348,-0.944,0.065,95,1
2495,-0.377,-0.914,0.037,95,1
2496,-0.389,-0.967,-0.007,95,1
2497,-0.404,-1.047,-0.014,95,1
2498,-0.399,-1.078,0.025,95,1
2499,-0.397,-1.062,0.065,95,1
2500,-0.426,-1.119,0.096,95,1
2501,-0.466,-1.239,0.105,95,1
2502,-0.437,-1.292,0.036,95,1
2503,-0.346,-1.317,-0.057,95,1
2504,-0.26,-1.329,-0.127,95,1
2505,-0.219,-1.234,-0.166,95,1
2506,-0.225,-1.07,-0.146,95,1
2507,-0.226,-0.947,-0.127,95,1
2508,-0.209,-0.919,-0.14,95,1
2509,-0.165,-0.98,-0.178,95,1
2510,-0.105,-1.08,-0.222,95,1
2511,-0.055,-1.147,-0.234,95,1
2512,-0.028,-1.12,-0.19,95,1
2513,-0.02,-1.087,-0.129,95,1
2514,-0.041,-1.027,-0.082,95,1
2515,-0.083,-0.935,0.003,95,1
2516,-0.114,-0.969,0.12,95,1
2517,-0.105,-1.054,0.182,95,1
2518,-0.111,-1.072,0.194,95,1
2519,-0.255,-1.055,0.229,95,1
2520,-0.472,-1.028,0.204,95,1
2521,-0.654,-1.007,0.12,95,1
2522,-0.719,-1.017,0.133,95,1
2523,-0.669,-1.04,0.214,95,1
2524,-0.646,-1.082,0.23,95,1
2525,-0.674,-1.162,0.15,95,1
2526,-0.702,-1.352,0.012,95,1
2527,-0.71,-1.514,-0.11,95,1
2528,-0.657,-1.52,-0.166,95,1
2529,-0.574,-1.433,-0.205,95,1
2530,-0.517,-1.273,-0.182,95,1
2531,-0.439,-1.082,0.027,95,1
2532,-0.329,-0.856,0.251,95,1
2533,-0.268,-0.671,0.338,95,1
2534,-0.254,-0.585,0.359,95,1
2535,-0.222,-0.583,0.363,95,1
2536,-0.228,-0.643,0.393,95,1
2537,-0.25,-0.696,0.428,95,1
2538,-0.172,-0.713,0.543,95,1
2539,-0.124,-0.766,0.675,96,1
2540,-0.169,-0.952,0.618,96,1
2541,-0.202,-1.192,0.48,96,1
2542,-0.274,-1.27,0.377,96,1
2543,-0.293,-1.114,0.305,96,1
2544,-0.14,-0.821,0.289,96,1
2545,0.015,-0.532,0.286,96,1
2546,0.098,-0.298,0.27,96,1
2547,0.134,-0.231,0.298,96,1
2548,0.067,-0.43,0.402,96,1
2549,-0.069,-0.756,0.424,96,1
2550,-0.259,-1.138,0.326,96,1
2551,-0.559,-1.519,0.197,96,1
2552,-0.741,-1.781,0.113,96,1
2553,-0.798,-1.84,0.071,96,1
2554,-0.771,-1.66,-0.06,96,1
2555,-0.612,-1.408,-0.148,96,1
2556,-0.488,-1.199,-0.116,96,1
2557,-0.405,-1.001,-0.058,96,1
2558,-0.366,-0.826,0.017,96,1
2559,-0.361,-0.708,0.064,96,1
2560,-0.333,-0.683,0.065,96,1
2561,-0.27,-0.77,0.023,96,1
2562,-0.187,-0.989,-0.081,96,1
2563,-0.117,-1.271,-0.256,96,1
2564,0,-1.356,-0.394,96,1
2565,0.086,-1.285,-0.302,96,1
2566,0.034,-1.207,-0.124,96,1
2567,-0.043,-1.092,0,96,1
2568,-0.083,-1.037,0.122,96,1
2569,-0.087,-0.988,0.197,96,1
2570,-0.126,-0.887,0.226,96,1
2571,-0.287,-0.791,0.148,96,1
2572,-0.454,-0.728,0.045,96,1
2573,-0.468,-0.715,0.005,96,1
2574,-0.402,-0.731,-0.029,96,1
2575,-0.381,-0.764,-0.048,96,1
2576,-0.421,-0.815,-0.014,96,1
2577,-0.464,-0.963,0.012,96,1
2578,-0.456,-1.306,-0.059,96,1
2579,-0.43,-1.477,-0.154,97,1
2580,-0.386,-1.374,-0.179,97,1
2581,-0.334,-1.254,-0.178,97,1
2582,-0.321,-1.085,-0.155,97,1
2583,-0.301,-0.896,-0.099,97,1
2584,-0.259,-0.749,-0.061,97,1
2585,-0.215,-0.686,-0.064,97,1
2586,-0.169,-0.69,-0.08,97,1
2587,-0.123,-0.781,-0.106,97,1
2588,-0.093,-0.919,-0.159,97,1
2589,-0.095,-1.07,-0.203,97,1
2590,-0.102,-1.184,-0.198,97,1
2591,-0.105,-1.28,-0.176,97,1
2592,-0.144,-1.25,-0.134,97,1
2593,-0.173,-1.068,0,97,1
2594,-0.127,-0.976,0.117,97,1
2595,-0.093,-0.927,0.132,97,1
2596,-0.115,-0.828,0.126,97,1
2597,-0.174,-0.746,0.11,97,1
2598,-0.242,-0.742,0.071,97,1
2599,-0.273,-0.806,0.031,97,1
2600,-0.282,-0.895,0.006,97,1
2601,-0.311,-0.965,0.018,97,1
2602,-0.352,-1.026,0.083,97,1
2603,-0.372,-1.161,0.141,97,1
2604,-0.374,-1.393,0.136,97,1
2605,-0.334,-1.471,0.046,97,1
2606,-0.262,-1.326,-0.084,97,1
2607,-0.229,-1.16,-0.15,97,1
2608,-0.247,-1.048,-0.098,97,1
2609,-0.249,-0.953,-0.006,97,1
2610,-0.209,-0.836,0.016,97,1
2611,-0.17,-0.781,-0.012,97,1
2612,-0.146,-0.805,-0.048,97,1
2613,-0.125,-0.872,-0.092,97,1
2614,-0.101,-0.973,-0.152,97,1
2615,-0.072,-1.08,-0.197,97,1
2616,-0.028,-1.154,-0.193,97,1
2617,-0.023,-1.197,-0.175,97,1
2618,-0.105,-1.15,-0.091,97,1
2619,-0.176,-1.055,0.072,97,1
2620,-0.166,-1.017,0.113,97,1
2621,-0.143,-0.978,0.06,97,1
2622,-0.144,-0.93,0.101,97,1
2623,-0.174,-0.877,0.171,97,1
2624,-0.237,-0.852,0.174,97,1
2625,-0.305,-0.913,0.155,97,1
2626,-0.35,-1.007,0.131,97,1
2627,-0.375,-1.079,0.128,97,1
2628,-0.376,-1.141,0.158,97,1
2629,-0.333,-1.181,0.143,98,1
2630,-0.321,-1.275,0.121,98,1
2631,-0.34,-1.328,0.088,98,1
2632,-0.318,-1.25,-0.009,98,1
2633,-0.282,-1.202,-0.085,98,1
2634,-0.238,-1.178,-0.105,98,1
2635,-0.196,-1.063,-0.115,98,1
2636,-0.183,-0.901,-0.11,98,1
2637,-0.185,-0.81,-0.099,98,1
2638,-0.176,-0.776,-0.123,98,1
2639,-0.141,-0.848,-0.175,98,1
2640,-0.098,-0.992,-0.213,98,1
2641,-0.07,-1.073,-0.201,98,1
2642,-0.051,-1.094,-0.145,98,1
2643,-0.043,-1.135,-0.094,98,1
2644,-0.081,-1.159,-0.05,98,1
2645,-0.147,-1.178,0.042,98,1
2646,-0.141,-1.199,0.103,98,1
2647,-0.088,-1.103,0.124,98,1
2648,-0.057,-0.94,0.175,98,1
2649,-0.101,-0.817,0.198,98,1
2650,-0.201,-0.77,0.191,98,1
2651,-0.263,-0.811,0.153,98,1
2652,-0.282,-0.899,0.079,98,1
2653,-0.301,-0.946,0.044,98,1
2654,-0.33,-0.988,0.05,98,1
2655,-0.374,-1.041,0.05,98,1
2656,-0.502,-1.172,0.08,98,1
2657,-0.649,-1.338,0.049,98,1
2658,-0.618,-1.387,-0.093,98,1
2659,-0.431,-1.384,-0.163,98,1
2660,-0.27,-1.314,-0.109,98,1
2661,-0.224,-1.157,-0.044,98,1
2662,-0.238,-1.021,-0.026,98,1
2663,-0.237,-0.952,-0.046,98,1
2664,-0.216,-0.942,-0.073,98,1
2665,-0.163,-1.007,-0.093,98,1
2666,-0.081,-1.155,-0.122,98,1
2667,-0.006,-1.247,-0.146,98,1
2668,0.021,-1.171,-0.106,98,1
2669,0.025,-1.045,-0.02,98,1
2670,0.019,-0.968,-0.008,98,1
2671,-0.016,-0.96,-0.041,98,1
2672,-0.08,-1.01,-0.024,98,1
2673,-0.17,-1.063,-0.004,98,1
2674,-0.266,-1.092,-0.026,98,1
2675,-0.339,-1.131,-0.036,98,1
2676,-0.422,-1.189,-0.003,98,1
2677,-0.545,-1.211,0.011,98,1
2678,-0.601,-1.198,0.013,98,1
2679,-0.605,-1.183,0.037,99,1
2680,-0.621,-1.145,0.043,99,1
2681,-0.594,-1.145,0.047,99,1
2682,-0.574,-1.265,0.06,99,1
2683,-0.499,-1.382,-0.036,99,1
2684,-0.332,-1.394,-0.215,99,1
2685,-0.193,-1.353,-0.288,99,1
2686,-0.129,-1.302,-0.261,99,1
2687,-0.113,-1.26,-0.262,99,1
2688,-0.012,-1.154,-0.341,99,1
2689,0.075,-0.905,-0.337,99,1
2690,0.082,-0.799,-0.251,99,1
2691,0.076,-0.909,-0.254,99,1
2692,0.067,-1.026,-0.248,99,1
2693,0.142,-1.095,-0.207,99,1
2694,0.196,-1.126,-0.187,99,1
2695,0.136,-1.248,-0.181,99,1
2696,0.02,-1.355,-0.162,99,1
2697,-0.081,-1.33,-0.09,99,1
2698,-0.147,-1.234,-0.02,99,1
2699,-0.185,-1.09,-0.016,99,1
2700,-0.215,-0.959,-0.041,99,1
2701,-0.247,-0.88,-0.064,99,1
2702,-0.301,-0.864,-0.071,99,1
2703,-0.376,-0.929,-0.058,99,1
2704,-0.435,-1.021,-0.04,99,1
2705,-0.471,-1.069,0.01,99,1
2706,-0.482,-1.072,0.071,99,1
2707,-0.475,-1.102,0.087,99,1
2708,-0.477,-1.233,0.067,99,1
2709,-0.45,-1.343,-0.032,99,1
2710,-0.366,-1.354,-0.17,99,1
2711,-0.292,-1.332,-0.208,99,1
2712,-0.251,-1.257,-0.163,99,1
2713,-0.228,-1.16,-0.124,99,1
2714,-0.212,-1.081,-0.115,99,1
2715,-0.19,-1.038,-0.131,99,1
2716,-0.158,-1.018,-0.169,99,1
2717,-0.114,-1.03,-0.204,99,1
2718,-0.058,-1.09,-0.219,99,1
2719,-0.016,-1.161,-0.218,100,1
2720,-0.005,-1.148,-0.176,100,1
2721,-0.01,-1.091,-0.113,100,1
2722,-0.02,-1.026,-0.065,100,1
2723,-0.044,-0.953,-0.027,100,1
2724,-0.094,-0.96,0.016,100,1
2725,-0.145,-1.016,0.063,100,1
2726,-0.162,-1.058,0.06,100,1
2727,-0.218,-1.104,0.021,100,1
2728,-0.361,-1.168,-0.011,100,1
2729,-0.447,-1.25,-0.118,100,1
2730,-0.458,-1.291,-0.124,100,1
2731,-0.438,-1.179,0.003,100,1
2732,-0.387,-1.05,0.078,100,1
2733,-0.398,-1.024,0.127,100,1
2734,-0.484,-1.112,0.161,100,1
2735,-0.553,-1.222,0.132,100,1
2736,-0.492,-1.284,0.01,100,1
2737,-0.335,-1.349,-0.108,100,1
2738,-0.212,-1.348,-0.14,100,1
2739,-0.182,-1.256,-0.121,100,1
2740,-0.202,-1.159,-0.124,100,1
2741,-0.212,-1.095,-0.161,100,1
2742,-0.2,-1.048,-0.193,100,1
2743,-0.17,-1.052,-0.208,100,1
2744,-0.114,-1.115,-0.228,100,1
2745,-0.063,-1.169,-0.237,100,1
2746,-0.054,-1.159,-0.187,100,1
2747,-0.057,-1.122,-0.1,100,1
2748,-0.033,-1.057,-0.06,100,1
2749,-0.014,-0.963,-0.043,100,1
2750,-0.048,-0.957,0.042,100,1
2751,-0.067,-1.073,0.152,100,1
2752,-0.066,-1.2,0.171,100,1
2753,-0.142,-1.25,0.118,100,1
2754,-0.322,-1.228,0.109,100,1
2755,-0.454,-1.163,0.075,100,1
2756,-0.474,-1.127,-0.004,100,1
2757,-0.502,-1.132,-0.022,100,1
2758,-0.496,-1.086,0.018,100,1
2759,-0.444,-1.018,0.06,100,1
2760,-0.433,-1.027,0.068,100,1
2761,-0.485,-1.191,0.068,100,1
2762,-0.491,-1.321,0.007,100,1
2763,-0.388,-1.294,-0.105,100,1
2764,-0.296,-1.262,-0.162,100,1
2765,-0.265,-1.252,-0.148,100,1
2766,-0.247,-1.213,-0.106,100,1
2767,-0.204,-1.118,-0.094,100,1
2768,-0.161,-1.017,-0.109,100,1
2769,-0.138,-0.973,-0.115,101,1
2770,-0.116,-1.018,-0.108,101,1
2771,-0.08,-1.109,-0.109,101,1
2772,-0.047,-1.136,-0.113,101,1
2773,-0.036,-1.094,-0.075,101,1
2774,-0.029,-1.061,-0.036,101,1
2775,-0.041,-1.034,-0.023,101,1
2776,-0.087,-1.037,0.022,101,1
2777,-0.116,-1.09,0.081,101,1
2778,-0.12,-1.129,0.072,101,1
2779,-0.172,-1.1,-0.022,101,1
2780,-0.363,-1.055,-0.092,101,1
2781,-0.558,-1.03,-0.119,101,1
2782,-0.667,-1.016,-0.152,101,1
2783,-0.717,-1.025,-0.113,101,1
2784,-0.684,-1.01,-0.056,101,1
2785,-0.638,-1.016,-0.03,101,1
2786,-0.585,-1.137,-0.05,101,1
2787,-0.538,-1.296,-0.126,101,1
2788,-0.451,-1.317,-0.178,101,1
2789,-0.278,-1.203,-0.187,101,1
2790,-0.124,-1.092,-0.178,101,1
2791,-0.043,-0.987,-0.177,101,1
2792,-0.019,-0.844,-0.173,101,1
2793,0.01,-0.725,-0.189,101,1
2794,0.082,-0.683,-0.233,101,1
2795,0.134,-0.68,-0.293,101,1
2796,0.13,-0.763,-0.325,101,1
2797,0.09,-0.993,-0.299,101,1
2798,0.044,-1.215,-0.244,101,1
2799,-0.118,-1.336,-0.145,101,1
2800,-0.296,-1.352,-0.116,101,1
2801,-0.313,-1.267,-0.185,101,1
2802,-0.266,-1.18,-0.189,101,1
2803,-0.227,-1.112,-0.099,101,1
2804,-0.161,-0.96,-0.027,101,1
2805,-0.102,-0.75,-0.011,101,1
2806,-0.129,-0.614,-0.002,101,1
2807,-0.183,-0.589,-0.004,101,1
2808,-0.19,-0.637,-0.026,101,1
2809,-0.188,-0.704,-0.042,102,1
2810,-0.224,-0.773,-0.022,102,1
2811,-0.27,-0.876,0.001,102,1
2812,-0.295,-1.071,-0.018,102,1
2813,-0.334,-1.339,-0.052,102,1
2814,-0.37,-1.441,-0.113,102,1
2815,-0.336,-1.336,-0.195,102,1
2816,-0.287,-1.217,-0.187,102,1
2817,-0.274,-1.078,-0.1,102,1
2818,-0.287,-0.895,-0.022,102,1
2819,-0.285,-0.73,0.008,102,1
2820,-0.258,-0.662,0.002,102,1
2821,-0.197,-0.723,-0.047,102,1
2822,-0.112,-0.881,-0.136,102,1
2823,-0.031,-1.064,-0.227,102,1
2824,0.014,-1.158,-0.261,102,1
2825,0.028,-1.189,-0.241,102,1
2826,0.003,-1.197,-0.235,102,1
2827,-0.084,-1.175,-0.134,102,1
2828,-0.122,-1.153,0.006,102,1
2829,-0.076,-1.083,0.001,102,1
2830,-0.088,-0.971,-0.036,102,1
2831,-0.166,-0.84,-0.031,102,1
2832,-0.262,-0.742,-0.011,102,1
2833,-0.33,-0.716,0.012,102,1
2834,-0.34,-0.757,0.015,102,1
2835,-0.332,-0.852,0.009,102,1
2836,-0.344,-0.958,0.015,102,1
2837,-0.375,-1.072,-0.01,102,1
2838,-0.421,-1.268,-0.045,102,1
2839,-0.442,-1.424,-0.089,102,1
2840,-0.38,-1.422,-0.166,102,1
2841,-0.279,-1.35,-0.203,102,1
2842,-0.226,-1.225,-0.17,102,1
2843,-0.226,-1.063,-0.109,102,1
2844,-0.219,-0.912,-0.077,102,1
2845,-0.191,-0.819,-0.087,102,1
2846,-0.159,-0.803,-0.111,102,1
2847,-0.128,-0.891,-0.155,102,1
2848,-0.076,-1.087,-0.233,102,1
2849,0.003,-1.263,-0.296,103,1
2850,0.063,-1.284,-0.271,103,1
2851,0.062,-1.214,-0.199,103,1
2852,-0.006,-1.07,-0.136,103,1
2853,-0.1,-0.937,-0.011,103,1
2854,-0.127,-0.941,0.113,103,1
2855,-0.125,-0.992,0.12,103,1
2856,-0.166,-1.007,0.091,103,1
2857,-0.248,-0.983,0.075,103,1
2858,-0.363,-0.97,0.043,103,1
2859,-0.455,-0.997,0.018,103,1
2860,-0.469,-1.046,0.042,103,1
2861,-0.443,-1.079,0.091,103,1
2862,-0.437,-1.08,0.112,103,1
2863,-0.431,-1.108,0.092,103,1
2864,-0.435,-1.257,0.067,103,1
2865,-0.401,-1.341,0.019,103,1
2866,-0.307,-1.306,-0.072,103,1
2867,-0.223,-1.328,-0.134,103,1
2868,-0.174,-1.279,-0.16,103,1
2869,-0.165,-1.111,-0.159,103,1
2870,-0.173,-0.943,-0.137,103,1
2871,-0.177,-0.85,-0.124,103,1
2872,-0.157,-0.861,-0.151,103,1
2873,-0.11,-0.936,-0.198,103,1
2874,-0.065,-1.048,-0.201,103,1
2875,-0.037,-1.144,-0.166,103,1
2876,0,-1.169,-0.134,103,1
2877,0.019,-1.159,-0.12,103,1
2878,-0.028,-1.114,-0.081,103,1
2879,-0.115,-1.07,0.013,103,1
2880,-0.168,-1.06,0.106,103,1
2881,-0.164,-1.02,0.131,103,1
2882,-0.172,-0.962,0.108,103,1
2883,-0.256,-0.927,0.083,103,1
2884,-0.358,-0.949,0.052,103,1
2885,-0.425,-1.024,0.031,103,1
2886,-0.449,-1.076,0.04,103,1
2887,-0.439,-1.085,0.057,103,1
2888,-0.428,-1.087,0.049,103,1
2889,-0.447,-1.201,0.051,103,1
2890,-0.478,-1.311,0.044,103,1
2891,-0.451,-1.304,-0.012,103,1
2892,-0.373,-1.281,-0.077,103,1
2893,-0.31,-1.222,-0.108,103,1
2894,-0.276,-1.119,-0.109,103,1
2895,-0.255,-0.994,-0.119,103,1
2896,-0.227,-0.902,-0.123,103,1
2897,-0.183,-0.887,-0.115,103,1
2898,-0.133,-0.962,-0.131,103,1
2899,-0.091,-1.109,-0.175,104,1
2900,-0.058,-1.218,-0.201,104,1
2901,-0.011,-1.203,-0.158,104,1
2902,0.021,-1.17,-0.099,104,1
2903,0,-1.088,-0.08,104,1
2904,-0.078,-0.984,-0.03,104,1
2905,-0.136,-0.991,0.059,104,1
2906,-0.144,-1.029,0.083,104,1
2907,-0.182,-1.043,0.058,104,1
2908,-0.295,-1.032,0.057,104,1
2909,-0.413,-1.007,0.031,104,1
2910,-0.456,-1.002,-0.026,104,1
2911,-0.438,-1.036,-0.043,104,1
2912,-0.406,-1.076,-0.025,104,1
2913,-0.401,-1.086,0,104,1
2914,-0.422,-1.143,0.043,104,1
2915,-0.459,-1.277,0.096,104,1
2916,-0.438,-1.321,0.066,104,1
2917,-0.347,-1.299,-0.052,104,1
2918,-0.262,-1.336,-0.145,104,1
2919,-0.218,-1.309,-0.158,104,1
2920,-0.212,-1.172,-0.131,104,1
2921,-0.208,-1.019,-0.124,104,1
2922,-0.197,-0.902,-0.131,104,1
2923,-0.176,-0.866,-0.129,104,1
2924,-0.132,-0.915,-0.14,104,1
2925,-0.083,-1.004,-0.133,104,1
2926,-0.058,-1.061,-0.088,104,1
2927,-0.036,-1.075,-0.08,104,1
2928,-0.023,-1.094,-0.121,104,1
2929,-0.045,-1.044,-0.139,104,1
2930,-0.107,-0.99,-0.092,104,1
2931,-0.167,-1.052,-0.034,104,1
2932,-0.214,-1.137,-0.031,104,1
2933,-0.264,-1.163,-0.02,104,1
2934,-0.323,-1.114,0.026,104,1
2935,-0.392,-1.045,0.076,104,1
2936,-0.412,-1.048,0.123,104,1
2937,-0.401,-1.124,0.159,104,1
2938,-0.431,-1.158,0.153,104,1
2939,-0.504,-1.126,0.091,105,1
2940,-0.568,-1.199,0.02,105,1
2941,-0.554,-1.385,-0.004,105,1
2942,-0.436,-1.429,-0.052,105,1
2943,-0.29,-1.353,-0.167,105,1
2944,-0.215,-1.285,-0.24,105,1
2945,-0.208,-1.176,-0.218,105,1
2946,-0.21,-1.039,-0.171,105,1
2947,-0.182,-0.923,-0.169,105,1
2948,-0.161,-0.907,-0.198,105,1
2949,-0.254,-1.067,-0.357,105,1
2950,-0.241,-1.174,-0.546,105,1
2951,-0.01,-1.089,-0.511,105,1
2952,0.18,-0.989,-0.266,105,1
2953,0.197,-0.929,-0.065,105,1
2954,0.096,-0.899,-0.013,105,1
2955,-0.01,-1.025,0.094,105,1
2956,-0.179,-1.254,0.207,105,1
2957,-0.358,-1.344,0.188,105,1
2958,-0.467,-1.26,0.146,105,1
2959,-0.51,-1.085,0.14,105,1
2960,-0.477,-0.899,0.095,105,1
2961,-0.426,-0.797,0.026,105,1
2962,-0.402,-0.816,0.021,105,1
2963,-0.379,-0.883,0.063,105,1
2964,-0.358,-0.948,0.114,105,1
2965,-0.357,-1.054,0.133,105,1
2966,-0.375,-1.277,0.116,105,1
2967,-0.382,-1.412,0.064,105,1
2968,-0.345,-1.343,-0.033,105,1
2969,-0.296,-1.245,-0.091,105,1
2970,-0.268,-1.137,-0.092,105,1
2971,-0.249,-0.997,-0.075,105,1
2972,-0.228,-0.874,-0.059,105,1
2973,-0.194,-0.819,-0.058,105,1
2974,-0.153,-0.825,-0.075,105,1
2975,-0.11,-0.887,-0.102,105,1
2976,-0.072,-0.993,-0.122,105,1
2977,-0.038,-1.1,-0.133,105,1
2978,0.001,-1.136,-0.141,105,1
2979,-0.014,-1.132,-0.147,106,1
2980,-0.093,-1.1,-0.089,106,1
2981,-0.142,-1.065,-0.004,106,1
2982,-0.168,-1.074,0.024,106,1
2983,-0.189,-1.044,0.039,106,1
2984,-0.211,-0.95,0.052,106,1
2985,-0.262,-0.859,0.049,106,1
2986,-0.315,-0.846,0.035,106,1
2987,-0.355,-0.915,0,106,1
2988,-0.383,-0.994,-0.025,106,1
2989,-0.377,-1.039,-0.006,106,1
2990,-0.346,-1.089,0.022,106,1
2991,-0.351,-1.222,0.042,106,1
2992,-0.395,-1.345,0.043,106,1
2993,-0.392,-1.332,-0.029,106,1
2994,-0.318,-1.281,-0.139,106,1
2995,-0.234,-1.247,-0.189,106,1
2996,-0.193,-1.15,-0.175,106,1
2997,-0.194,-0.996,-0.141,106,1
2998,-0.192,-0.891,-0.132,106,1
2999,-0.169,-0.876,-0.161,106,1
3000,-0.125,-0.919,-0.2,106,1
3001,-0.062,-0.992,-0.209,106,1
3002,-0.002,-1.062,-0.183,106,1
3003,0.009,-1.08,-0.137,106,1
3004,0,-1.091,-0.103,106,1
3005,-0.018,-1.106,-0.11,106,1
3006,-0.08,-1.099,-0.077,106,1
3007,-0.151,-1.104,0.024,106,1
3008,-0.185,-1.086,0.079,106,1
3009,-0.195,-1.014,0.082,106,1
3010,-0.233,-0.916,0.087,106,1
3011,-0.303,-0.874,0.075,106,1
3012,-0.366,-0.918,0.019,106,1
3013,-0.418,-0.997,-0.006,106,1
3014,-0.435,-1.051,0.024,106,1
3015,-0.427,-1.078,0.06,106,1
3016,-0.432,-1.144,0.066,106,1
3017,-0.463,-1.268,0.05,106,1
3018,-0.442,-1.324,-0.014,106,1
3019,-0.334,-1.296,-0.128,106,1
3020,-0.243,-1.274,-0.178,106,1
3021,-0.209,-1.204,-0.15,106,1
3022,-0.21,-1.052,-0.117,106,1
3023,-0.209,-0.904,-0.107,106,1
3024,-0.194,-0.853,-0.102,106,1
3025,-0.151,-0.898,-0.125,106,1
3026,-0.078,-0.964,-0.177,106,1
3027,-0.019,-1.009,-0.193,106,1
3028,-0.014,-1.032,-0.158,106,1
3029,-0.029,-1.048,-0.118,107,1
3030,-0.041,-1.078,-0.122,107,1
3031,-0.085,-1.087,-0.112,107,1
3032,-0.146,-1.1,-0.02,107,1
3033,-0.186,-1.149,0.05,107,1
3034,-0.216,-1.16,0.042,107,1
3035,-0.275,-1.108,0.025,107,1
3036,-0.349,-1.025,0.008,107,1
3037,-0.381,-0.975,-0.018,107,1