Sample Count,Acceleration X (g),Acceleration Y (g),Acceleration Z (g),Heart Rate (bpm),Activity
0,-1.173,0.272,0.4,60,1
1,-1.109,0.256,0.423,60,1
2,-0.932,0.223,0.483,60,1
3,-0.751,0.183,0.52,60,1
4,-0.635,0.152,0.506,60,1
5,-0.563,0.174,0.454,60,1
6,-0.626,0.254,0.327,60,1
7,-0.758,0.338,0.185,60,1
8,-0.834,0.4,0.113,60,1
9,-0.873,0.44,0.101,60,1
10,-0.902,0.429,0.08,60,1
11,-1,0.383,0.035,60,1
12,-1.14,0.373,0.043,60,1
13,-1.166,0.373,0.102,60,1
14,-1.057,0.332,0.169,60,1
15,-0.976,0.287,0.201,60,1
16,-0.949,0.252,0.187,60,1
17,-0.881,0.199,0.147,60,1
18,-0.828,0.137,0.123,60,1
19,-0.852,0.099,0.12,60,1
20,-0.872,0.096,0.136,60,1
21,-0.879,0.125,0.172,60,1
22,-0.893,0.147,0.2,60,1
23,-0.893,0.147,0.2,60,1
24,-0.893,0.147,0.2,60,1
25,-0.895,0.145,0.209,60,1
26,-0.927,0.156,0.188,60,1
27,-1.017,0.191,0.155,60,1
28,-1.105,0.237,0.16,60,1
29,-1.189,0.28,0.184,60,1
30,-1.193,0.321,0.206,60,1
31,-1.073,0.342,0.243,60,1
32,-1.006,0.329,0.25,60,1
33,-0.994,0.295,0.196,60,1
34,-0.975,0.253,0.107,60,1
35,-0.915,0.226,0.05,60,1
36,-0.828,0.209,0.038,60,1
37,-0.793,0.185,0.031,60,1
38,-0.817,0.164,0.021,60,1
39,-0.859,0.141,0.022,60,1
40,-0.905,0.118,0.019,60,1
41,-0.995,0.116,-0.002,60,1
42,-1.079,0.15,-0.002,60,1
43,-1.079,0.217,0.049,60,1
44,-1.08,0.291,0.104,60,1
45,-1.131,0.359,0.141,60,1
46,-1.079,0.376,0.182,60,1
47,-0.953,0.337,0.203,60,1
48,-0.879,0.319,0.255,60,1
49,-0.814,0.317,0.356,60,1
50,-0.788,0.292,0.412,60,1
51,-0.695,0.26,0.43,60,1
52,-0.581,0.225,0.455,60,1
53,-0.623,0.181,0.504,60,1
54,-0.627,0.178,0.6,60,1
55,-0.595,0.204,0.679,60,1
56,-0.607,0.217,0.704,60,1
57,-0.607,0.232,0.721,60,1
58,-0.705,0.267,0.737,60,1
59,-0.867,0.319,0.751,59,1
60,-0.945,0.395,0.763,59,1
61,-0.902,0.46,0.731,59,1
62,-0.775,0.468,0.642,59,1
63,-0.643,0.466,0.562,59,1
64,-0.568,0.457,0.511,59,1
65,-0.569,0.396,0.482,59,1
66,-0.639,0.295,0.478,59,1
67,-0.733,0.21,0.484,59,1
68,-0.776,0.17,0.506,59,1
69,-0.771,0.173,0.536,59,1
70,-0.764,0.211,0.546,59,1
71,-0.763,0.28,0.539,59,1
72,-0.763,0.386,0.537,59,1
73,-0.75,0.508,0.531,59,1
74,-0.747,0.63,0.515,59,1
75,-0.787,0.752,0.502,59,1
76,-0.784,0.813,0.486,59,1
77,-0.68,0.784,0.461,59,1
78,-0.59,0.733,0.433,59,1
79,-0.565,0.693,0.409,59,1
80,-0.554,0.649,0.404,59,1
81,-0.551,0.614,0.428,59,1
82,-0.554,0.587,0.463,59,1
83,-0.562,0.552,0.508,59,1
84,-0.572,0.515,0.555,59,1
85,-0.555,0.492,0.581,59,1
86,-0.519,0.493,0.58,59,1
87,-0.519,0.54,0.574,59,1
88,-0.546,0.638,0.588,59,1
89,-0.577,0.764,0.597,59,1
90,-0.608,0.904,0.586,59,1
91,-0.58,0.987,0.544,59,1
92,-0.515,1.005,0.479,59,1
93,-0.445,0.983,0.428,59,1
94,-0.381,0.895,0.403,59,1
95,-0.364,0.792,0.413,59,1
96,-0.359,0.728,0.438,59,1
97,-0.345,0.7,0.445,59,1
98,-0.333,0.687,0.436,59,1
99,-0.33,0.68,0.431,59,1
100,-0.318,0.704,0.448,59,1
101,-0.287,0.782,0.469,59,1
102,-0.258,0.886,0.472,59,1
103,-0.254,0.978,0.459,59,1
104,-0.264,1.01,0.46,59,1
105,-0.233,0.937,0.476,59,1
106,-0.18,0.841,0.478,59,1
107,-0.149,0.801,0.464,59,1
108,-0.144,0.787,0.439,59,1
109,-0.155,0.778,0.43,59,1
110,-0.164,0.798,0.433,59,1
111,-0.191,0.835,0.426,59,1
112,-0.23,0.831,0.435,59,1
113,-0.269,0.8,0.482,59,1
114,-0.303,0.773,0.532,59,1
115,-0.3,0.765,0.541,59,1
116,-0.298,0.804,0.541,59,1
117,-0.299,0.897,0.531,59,1
118,-0.282,1.056,0.488,59,1
119,-0.301,1.192,0.418,59,1
120,-0.332,1.203,0.307,59,1
121,-0.36,1.162,0.191,59,1
122,-0.41,1.112,0.143,59,1
123,-0.458,1.015,0.166,59,1
124,-0.526,0.895,0.215,59,1
125,-0.61,0.807,0.285,59,1
126,-0.692,0.741,0.366,59,1
127,-0.833,0.697,0.431,59,1
128,-1.054,0.683,0.484,59,1
129,-1.276,0.644,0.507,59,1
130,-1.393,0.552,0.436,59,1
131,-1.323,0.41,0.305,59,1
132,-1.079,0.25,0.183,59,1
133,-0.854,0.103,0.092,59,1
134,-0.736,-0.064,0.046,59,1
135,-0.692,-0.202,0.027,59,1
136,-0.659,-0.264,0.034,59,1
137,-0.623,-0.301,0.048,59,1
138,-0.56,-0.411,0.036,59,1
139,-0.455,-0.554,0.069,59,1
140,-0.433,-0.644,0.093,59,1
141,-0.485,-0.699,0.05,59,1
142,-0.496,-0.692,0.069,59,1
143,-0.492,-0.673,0.129,59,1
144,-0.547,-0.698,0.158,59,1
145,-0.584,-0.716,0.153,59,1
146,-0.565,-0.714,0.126,59,1
147,-0.541,-0.759,0.127,59,1
148,-0.527,-0.869,0.191,59,1
149,-0.51,-1.003,0.245,59,1
150,-0.509,-1.092,0.214,59,1
151,-0.479,-1.056,0.158,59,1
152,-0.408,-0.976,0.124,59,1
153,-0.351,-0.938,0.095,59,1
154,-0.352,-0.891,0.104,59,1
155,-0.38,-0.861,0.14,59,1
156,-0.395,-0.857,0.149,59,1
157,-0.404,-0.823,0.147,59,1
158,-0.399,-0.784,0.163,59,1
159,-0.38,-0.774,0.191,59,1
160,-0.35,-0.77,0.219,59,1
161,-0.324,-0.752,0.236,59,1
162,-0.326,-0.749,0.231,59,1
163,-0.36,-0.705,0.25,59,1
164,-0.369,-0.587,0.272,59,1
165,-0.303,-0.483,0.217,59,1
166,-0.235,-0.395,0.14,59,1
167,-0.293,-0.18,0.157,59,1
168,-0.453,0.121,0.225,59,1
169,-0.652,0.435,0.207,59,1
170,-0.891,0.74,0.237,59,1
171,-1.003,0.99,0.312,59,1
172,-1.043,1.184,0.276,59,1
173,-1.095,1.25,0.192,59,1
174,-1.065,1.188,0.081,59,1
175,-1.014,1.121,-0.006,59,1
176,-0.977,1.082,-0.017,59,1
177,-0.893,1.028,0.034,59,1
178,-0.754,0.989,0.123,59,1
179,-0.625,0.984,0.216,60,1
180,-0.531,1.027,0.248,60,1
181,-0.507,1.145,0.24,60,1
182,-0.515,1.235,0.245,60,1
183,-0.481,1.215,0.22,60,1
184,-0.437,1.168,0.159,60,1
185,-0.414,1.129,0.103,60,1
186,-0.385,1.084,0.072,60,1
187,-0.337,1.032,0.056,60,1
188,-0.303,0.979,0.051,60,1
189,-0.295,0.935,0.048,60,1
190,-0.294,0.894,0.056,60,1
191,-0.287,0.842,0.078,60,1
192,-0.275,0.777,0.094,60,1
193,-0.267,0.723,0.106,60,1
194,-0.26,0.716,0.115,60,1
195,-0.256,0.775,0.131,60,1
196,-0.265,0.919,0.144,60,1
197,-0.29,1.142,0.139,60,1
198,-0.31,1.256,0.153,60,1
199,-0.306,1.222,0.203,60,1
200,-0.289,1.185,0.222,60,1
201,-0.276,1.133,0.183,60,1
202,-0.267,1.042,0.163,60,1
203,-0.268,0.942,0.176,60,1
204,-0.289,0.859,0.179,60,1
205,-0.328,0.813,0.182,60,1
206,-0.363,0.807,0.2,60,1
207,-0.378,0.818,0.248,60,1
208,-0.378,0.809,0.309,60,1
209,-0.378,0.823,0.339,60,1
210,-0.386,0.892,0.34,60,1
211,-0.386,0.982,0.321,60,1
212,-0.39,1.11,0.297,60,1
213,-0.409,1.215,0.297,60,1
214,-0.411,1.214,0.272,60,1
215,-0.394,1.198,0.203,60,1
216,-0.374,1.205,0.145,60,1
217,-0.334,1.167,0.111,60,1
218,-0.288,1.092,0.092,60,1
219,-0.263,1.012,0.085,60,1
220,-0.253,0.934,0.094,60,1
221,-0.249,0.855,0.108,60,1
222,-0.243,0.789,0.138,60,1
223,-0.225,0.728,0.175,60,1
224,-0.197,0.679,0.186,60,1
225,-0.193,0.693,0.185,60,1
226,-0.212,0.763,0.189,60,1
227,-0.233,0.886,0.193,60,1
228,-0.253,1.094,0.186,60,1
229,-0.278,1.296,0.165,60,1
230,-0.293,1.326,0.161,60,1
231,-0.283,1.257,0.186,60,1
232,-0.265,1.2,0.193,60,1
233,-0.246,1.114,0.187,60,1
234,-0.23,1,0.201,60,1
235,-0.239,0.88,0.217,60,1
236,-0.269,0.771,0.224,60,1
237,-0.31,0.708,0.238,60,1
238,-0.337,0.709,0.26,60,1
239,-0.346,0.745,0.283,61,1
240,-0.359,0.792,0.303,61,1
241,-0.373,0.864,0.319,61,1
242,-0.379,0.946,0.325,61,1
243,-0.4,1.05,0.308,61,1
244,-0.479,1.197,0.28,61,1
245,-0.541,1.27,0.245,61,1
246,-0.561,1.271,0.198,61,1
247,-0.628,1.292,0.161,61,1
248,-0.712,1.271,0.173,61,1
249,-0.785,1.168,0.201,61,1
250,-0.869,1.021,0.224,61,1
251,-0.951,0.883,0.237,61,1
252,-1.041,0.753,0.242,61,1
253,-0.988,0.594,0.242,61,1
254,-0.817,0.383,0.229,61,1
255,-0.708,0.149,0.231,61,1
256,-0.62,-0.077,0.219,61,1
257,-0.562,-0.271,0.2,61,1
258,-0.53,-0.404,0.201,61,1
259,-0.483,-0.505,0.208,61,1
260,-0.45,-0.59,0.229,61,1
261,-0.458,-0.631,0.267,61,1
262,-0.478,-0.614,0.3,61,1
263,-0.474,-0.593,0.309,61,1
264,-0.45,-0.63,0.323,61,1
265,-0.421,-0.685,0.35,61,1
266,-0.351,-0.708,0.37,61,1
267,-0.26,-0.715,0.378,61,1
268,-0.199,-0.734,0.384,61,1
269,-0.172,-0.744,0.407,62,1
270,-0.201,-0.739,0.43,62,1
271,-0.282,-0.755,0.454,62,1
272,-0.378,-0.804,0.474,62,1
273,-0.439,-0.87,0.49,62,1
274,-0.456,-0.921,0.512,62,1
275,-0.432,-0.98,0.495,62,1
276,-0.375,-1.041,0.451,62,1
277,-0.312,-1.03,0.421,62,1
278,-0.238,-0.972,0.367,62,1
279,-0.166,-0.878,0.33,62,1
280,-0.146,-0.709,0.333,62,1
281,-0.149,-0.492,0.329,62,1
282,-0.14,-0.308,0.316,62,1
283,-0.097,-0.233,0.287,62,1
284,0.016,-0.212,0.289,62,1
285,0.1,-0.146,0.322,62,1
286,-0.085,0.017,0.354,62,1
287,-0.448,0.212,0.345,62,1
288,-0.892,0.449,0.358,62,1
289,-1.148,0.69,0.414,62,1
290,-1.136,0.883,0.423,62,1
291,-1.152,1.129,0.393,62,1
292,-1.091,1.335,0.334,62,1
293,-0.927,1.43,0.289,62,1
294,-0.78,1.468,0.219,62,1
295,-0.696,1.409,0.13,62,1
296,-0.594,1.262,0.11,62,1
297,-0.48,1.112,0.159,62,1
298,-0.42,0.979,0.207,62,1
299,-0.399,0.864,0.215,62,1
300,-0.403,0.795,0.213,62,1
301,-0.41,0.788,0.224,62,1
302,-0.379,0.807,0.245,62,1
303,-0.34,0.87,0.261,62,1
304,-0.324,0.958,0.263,62,1
305,-0.319,1.04,0.258,62,1
306,-0.335,1.156,0.264,62,1
307,-0.373,1.258,0.268,62,1
308,-0.366,1.24,0.227,62,1
309,-0.322,1.166,0.15,63,1
310,-0.301,1.143,0.08,63,1
311,-0.281,1.111,0.038,63,1
312,-0.261,1.025,0.041,63,1
313,-0.262,0.929,0.059,63,1
314,-0.294,0.859,0.064,63,1
315,-0.322,0.816,0.078,63,1
316,-0.318,0.776,0.118,63,1
317,-0.319,0.732,0.165,63,1
318,-0.34,0.699,0.192,63,1
319,-0.365,0.712,0.202,63,1
320,-0.371,0.771,0.205,63,1
321,-0.363,0.882,0.196,63,1
322,-0.345,1.044,0.156,63,1
323,-0.334,1.183,0.114,63,1
324,-0.333,1.182,0.122,63,1
325,-0.333,1.1,0.156,63,1
326,-0.329,1.054,0.168,63,1
327,-0.311,1.023,0.165,63,1
328,-0.287,0.971,0.18,63,1
329,-0.287,0.903,0.205,63,1
330,-0.297,0.858,0.24,63,1
331,-0.288,0.831,0.256,63,1
332,-0.292,0.831,0.244,63,1
333,-0.326,0.835,0.238,63,1
334,-0.358,0.823,0.233,63,1
335,-0.37,0.854,0.239,63,1
336,-0.369,0.919,0.247,63,1
337,-0.374,1.014,0.222,63,1
338,-0.407,1.149,0.195,63,1
339,-0.435,1.21,0.184,63,1
340,-0.423,1.178,0.158,63,1
341,-0.403,1.141,0.123,63,1
342,-0.382,1.105,0.093,63,1
343,-0.34,1.055,0.069,63,1
344,-0.301,0.988,0.056,63,1
345,-0.295,0.918,0.058,63,1
346,-0.317,0.871,0.074,63,1
347,-0.34,0.849,0.096,63,1
348,-0.346,0.831,0.119,63,1
349,-0.332,0.799,0.142,63,1
350,-0.318,0.767,0.152,63,1
351,-0.324,0.775,0.153,63,1
352,-0.338,0.824,0.165,63,1
353,-0.34,0.926,0.167,63,1
354,-0.335,1.078,0.144,63,1
355,-0.317,1.16,0.134,63,1
356,-0.285,1.138,0.153,63,1
357,-0.258,1.107,0.162,63,1
358,-0.25,1.066,0.152,63,1
359,-0.26,0.979,0.169,63,1
360,-0.281,0.878,0.21,63,1
361,-0.301,0.799,0.234,63,1
362,-0.313,0.77,0.243,63,1
363,-0.325,0.798,0.249,63,1
364,-0.337,0.861,0.252,63,1
365,-0.345,0.914,0.253,63,1
366,-0.341,0.946,0.26,63,1
367,-0.327,0.97,0.271,63,1
368,-0.312,1.009,0.269,63,1
369,-0.317,1.109,0.259,63,1
370,-0.346,1.175,0.255,63,1
371,-0.372,1.163,0.223,63,1
372,-0.388,1.173,0.162,63,1
373,-0.39,1.164,0.112,63,1
374,-0.351,1.091,0.094,63,1
375,-0.294,0.999,0.104,63,1
376,-0.276,0.93,0.116,63,1
377,-0.286,0.901,0.117,63,1
378,-0.287,0.885,0.111,63,1
379,-0.289,0.852,0.124,63,1
380,-0.303,0.8,0.142,63,1
381,-0.327,0.76,0.147,63,1
382,-0.352,0.75,0.16,63,1
383,-0.369,0.768,0.188,63,1
384,-0.372,0.827,0.216,63,1
385,-0.364,0.937,0.207,63,1
386,-0.347,1.023,0.188,63,1
387,-0.33,1.043,0.198,63,1
388,-0.309,1.056,0.198,63,1
389,-0.284,1.061,0.173,63,1
390,-0.263,1.016,0.164,63,1
391,-0.262,0.942,0.177,63,1
392,-0.279,0.876,0.182,63,1
393,-0.294,0.847,0.19,63,1
394,-0.3,0.856,0.211,63,1
395,-0.304,0.879,0.235,63,1
396,-0.309,0.885,0.257,63,1
397,-0.314,0.896,0.271,63,1
398,-0.322,0.942,0.279,63,1
399,-0.322,1.016,0.275,63,1
400,-0.328,1.131,0.271,63,1
401,-0.35,1.218,0.284,63,1
402,-0.351,1.181,0.266,63,1
403,-0.33,1.135,0.202,63,1
404,-0.311,1.139,0.141,63,1
405,-0.291,1.113,0.1,63,1
406,-0.271,1.05,0.085,63,1
407,-0.259,0.978,0.095,63,1
408,-0.253,0.927,0.108,63,1
409,-0.247,0.9,0.116,63,1
410,-0.244,0.879,0.131,63,1
411,-0.244,0.841,0.15,63,1
412,-0.263,0.802,0.153,63,1
413,-0.288,0.79,0.145,63,1
414,-0.281,0.814,0.156,63,1
415,-0.277,0.908,0.178,63,1
416,-0.288,1.056,0.166,63,1
417,-0.3,1.161,0.132,63,1
418,-0.301,1.152,0.139,63,1
419,-0.272,1.083,0.165,63,1
420,-0.242,1.03,0.161,63,1
421,-0.238,0.98,0.145,63,1
422,-0.254,0.936,0.152,63,1
423,-0.272,0.911,0.176,63,1
424,-0.286,0.902,0.197,63,1
425,-0.299,0.899,0.229,63,1
426,-0.31,0.897,0.268,63,1
427,-0.312,0.883,0.296,63,1
428,-0.304,0.877,0.299,63,1
429,-0.312,0.918,0.287,63,1
430,-0.323,0.984,0.268,63,1
431,-0.33,1.073,0.245,63,1
432,-0.355,1.187,0.244,63,1
433,-0.368,1.197,0.244,63,1
434,-0.352,1.14,0.202,63,1
435,-0.343,1.131,0.153,63,1
436,-0.333,1.123,0.131,63,1
437,-0.295,1.085,0.119,63,1
438,-0.259,1.026,0.116,63,1
439,-0.246,0.967,0.122,63,1
440,-0.244,0.918,0.134,63,1
441,-0.244,0.877,0.151,63,1
442,-0.237,0.833,0.162,63,1
443,-0.226,0.786,0.153,63,1
444,-0.228,0.768,0.133,63,1
445,-0.251,0.802,0.128,63,1
446,-0.278,0.89,0.146,63,1
447,-0.277,1.056,0.155,63,1
448,-0.257,1.192,0.139,63,1
449,-0.239,1.172,0.166,64,1
450,-0.222,1.114,0.212,64,1
451,-0.214,1.092,0.207,64,1
452,-0.216,1.035,0.199,64,1
453,-0.232,0.94,0.227,64,1
454,-0.257,0.851,0.257,64,1
455,-0.262,0.795,0.278,64,1
456,-0.253,0.775,0.305,64,1
457,-0.253,0.789,0.33,64,1
458,-0.258,0.815,0.347,64,1
459,-0.264,0.838,0.347,64,1
460,-0.277,0.886,0.337,64,1
461,-0.293,0.978,0.328,64,1
462,-0.311,1.121,0.308,64,1
463,-0.331,1.281,0.296,64,1
464,-0.331,1.288,0.29,64,1
465,-0.306,1.169,0.251,64,1
466,-0.292,1.1,0.198,64,1
467,-0.297,1.065,0.158,64,1
468,-0.289,1.017,0.132,64,1
469,-0.27,0.946,0.115,64,1
470,-0.26,0.884,0.075,64,1
471,-0.254,0.867,0.014,64,1
472,-0.264,0.846,0.021,64,1
473,-0.287,0.81,0.103,64,1
474,-0.318,0.773,0.174,64,1
475,-0.361,0.755,0.206,64,1
476,-0.385,0.801,0.222,64,1
477,-0.377,0.917,0.224,64,1
478,-0.353,1.081,0.189,64,1
479,-0.333,1.211,0.143,64,1
480,-0.314,1.164,0.135,64,1
481,-0.282,1.03,0.161,64,1
482,-0.25,0.984,0.153,64,1
483,-0.234,0.979,0.109,64,1
484,-0.243,0.958,0.106,64,1
485,-0.272,0.914,0.147,64,1
486,-0.306,0.861,0.176,64,1
487,-0.325,0.83,0.2,64,1
488,-0.325,0.839,0.24,64,1
489,-0.314,0.864,0.273,64,1
490,-0.298,0.881,0.289,64,1
491,-0.297,0.918,0.292,64,1
492,-0.308,0.983,0.286,64,1
493,-0.31,1.055,0.273,64,1
494,-0.319,1.165,0.264,64,1
495,-0.344,1.228,0.273,64,1
496,-0.345,1.18,0.254,64,1
497,-0.329,1.139,0.195,64,1
498,-0.323,1.138,0.151,64,1
499,-0.304,1.114,0.132,64,1
500,-0.271,1.06,0.121,64,1
501,-0.254,0.998,0.107,64,1
502,-0.251,0.937,0.096,64,1
503,-0.244,0.874,0.091,64,1
504,-0.235,0.811,0.096,64,1
505,-0.23,0.756,0.104,64,1
506,-0.234,0.736,0.105,64,1
507,-0.239,0.782,0.119,64,1
508,-0.242,0.87,0.147,64,1
509,-0.242,0.992,0.171,65,1
510,-0.247,1.144,0.182,65,1
511,-0.256,1.188,0.201,65,1
512,-0.257,1.149,0.237,65,1
513,-0.248,1.145,0.241,65,1
514,-0.232,1.106,0.209,65,1
515,-0.224,1.014,0.2,65,1
516,-0.24,0.915,0.208,65,1
517,-0.268,0.83,0.202,65,1
518,-0.298,0.785,0.195,65,1
519,-0.319,0.781,0.21,65,1
520,-0.321,0.797,0.238,65,1
521,-0.317,0.818,0.267,65,1
522,-0.316,0.873,0.293,65,1
523,-0.312,0.957,0.302,65,1
524,-0.304,1.041,0.294,65,1
525,-0.318,1.155,0.289,65,1
526,-0.353,1.238,0.295,65,1
527,-0.355,1.206,0.272,65,1
528,-0.331,1.166,0.214,65,1
529,-0.32,1.157,0.168,65,1
530,-0.306,1.103,0.145,65,1
531,-0.275,1.022,0.135,65,1
532,-0.245,0.948,0.128,65,1
533,-0.233,0.889,0.121,65,1
534,-0.23,0.844,0.121,65,1
535,-0.229,0.811,0.143,65,1
536,-0.221,0.786,0.164,65,1
537,-0.215,0.769,0.152,65,1
538,-0.227,0.782,0.135,65,1
539,-0.252,0.848,0.139,65,1
540,-0.264,0.981,0.133,65,1
541,-0.254,1.177,0.099,65,1
542,-0.246,1.299,0.083,65,1
543,-0.24,1.236,0.125,65,1
544,-0.226,1.148,0.172,65,1
545,-0.22,1.118,0.179,65,1
546,-0.203,1.061,0.189,65,1
547,-0.191,0.969,0.22,65,1
548,-0.218,0.873,0.241,65,1
549,-0.255,0.808,0.244,66,1
550,-0.271,0.785,0.244,66,1
551,-0.284,0.792,0.257,66,1
552,-0.313,0.804,0.288,66,1
553,-0.329,0.811,0.314,66,1
554,-0.32,0.87,0.318,66,1
555,-0.3,0.976,0.307,66,1
556,-0.285,1.09,0.282,66,1
557,-0.297,1.19,0.274,66,1
558,-0.318,1.201,0.285,66,1
559,-0.314,1.158,0.252,66,1
560,-0.302,1.156,0.193,66,1
561,-0.293,1.158,0.167,66,1
562,-0.271,1.114,0.173,66,1
563,-0.239,1.034,0.172,66,1
564,-0.237,0.94,0.151,66,1
565,-0.275,0.86,0.133,66,1
566,-0.296,0.815,0.16,66,1
567,-0.271,0.781,0.191,66,1
568,-0.243,0.731,0.182,66,1
569,-0.253,0.697,0.171,66,1
570,-0.296,0.726,0.154,66,1
571,-0.347,0.843,0.129,66,1
572,-0.376,1.046,0.115,66,1
573,-0.372,1.197,0.11,66,1
574,-0.343,1.171,0.141,66,1
575,-0.304,1.114,0.187,66,1
576,-0.269,1.11,0.171,66,1
577,-0.25,1.072,0.158,66,1
578,-0.256,1,0.196,66,1
579,-0.286,0.923,0.227,66,1
580,-0.311,0.857,0.244,66,1
581,-0.311,0.834,0.261,66,1
582,-0.3,0.85,0.275,66,1
583,-0.292,0.851,0.276,66,1
584,-0.306,0.844,0.265,66,1
585,-0.336,0.881,0.257,66,1
586,-0.351,0.965,0.248,66,1
587,-0.359,1.127,0.238,66,1
588,-0.374,1.27,0.248,66,1
589,-0.357,1.244,0.243,67,1
590,-0.319,1.179,0.187,67,1
591,-0.303,1.167,0.131,67,1
592,-0.293,1.128,0.117,67,1
593,-0.271,1.056,0.123,67,1
594,-0.262,0.98,0.129,67,1
595,-0.272,0.911,0.123,67,1
596,-0.299,0.854,0.12,67,1
597,-0.318,0.816,0.134,67,1
598,-0.301,0.793,0.141,67,1
599,-0.273,0.775,0.137,67,1
600,-0.264,0.779,0.127,67,1
601,-0.272,0.822,0.117,67,1
602,-0.279,0.915,0.101,67,1
603,-0.279,1.079,0.071,67,1
604,-0.287,1.198,0.069,67,1
605,-0.29,1.158,0.12,67,1
606,-0.274,1.091,0.171,67,1
607,-0.266,1.066,0.178,67,1
608,-0.259,1.007,0.17,67,1
609,-0.247,0.924,0.177,67,1
610,-0.263,0.864,0.187,67,1
611,-0.308,0.848,0.198,67,1
612,-0.364,0.879,0.241,67,1
613,-0.444,0.924,0.312,67,1
614,-0.576,0.897,0.369,67,1
615,-0.694,0.851,0.359,67,1
616,-0.691,0.913,0.295,67,1
617,-0.578,1.032,0.239,67,1
618,-0.46,1.168,0.196,67,1
619,-0.432,1.249,0.165,68,1
620,-0.442,1.182,0.124,68,1
621,-0.424,1.092,0.057,68,1
622,-0.407,1.068,0.012,68,1
623,-0.393,1.056,0.003,68,1
624,-0.37,1.016,0.021,68,1
625,-0.356,0.949,0.07,68,1
626,-0.349,0.854,0.116,68,1
627,-0.332,0.741,0.138,68,1
628,-0.326,0.642,0.15,68,1
629,-0.329,0.576,0.166,68,1
630,-0.261,0.595,0.197,68,1
631,-0.252,0.729,0.176,68,1
632,-0.372,0.881,0.091,68,1
633,-0.414,1.016,0.03,68,1
634,-0.36,1.181,0.03,68,1
635,-0.332,1.271,0.075,68,1
636,-0.329,1.211,0.141,68,1
637,-0.296,1.118,0.179,68,1
638,-0.204,1.039,0.171,68,1
639,-0.103,0.944,0.162,68,1
640,-0.153,0.863,0.134,68,1
641,-0.315,0.823,0.08,68,1
642,-0.414,0.812,0.067,68,1
643,-0.432,0.801,0.119,68,1
644,-0.437,0.802,0.197,68,1
645,-0.45,0.825,0.271,68,1
646,-0.458,0.863,0.307,68,1
647,-0.475,0.936,0.28,68,1
648,-0.518,1.01,0.224,68,1
649,-0.557,1.062,0.185,69,1
650,-0.579,1.102,0.177,69,1
651,-0.589,1.111,0.165,69,1
652,-0.566,1.101,0.122,69,1
653,-0.563,1.109,0.069,69,1
654,-0.47,1.127,0.051,69,1
655,-0.316,1.091,0.074,69,1
656,-0.263,0.999,0.104,69,1
657,-0.253,0.915,0.128,69,1
658,-0.263,0.859,0.139,69,1
659,-0.26,0.804,0.139,69,1
660,-0.247,0.718,0.135,69,1
661,-0.248,0.629,0.14,69,1
662,-0.269,0.606,0.135,69,1
663,-0.295,0.693,0.114,69,1
664,-0.307,0.875,0.106,69,1
665,-0.349,1.095,0.104,69,1
666,-0.406,1.24,0.114,69,1
667,-0.403,1.222,0.185,69,1
668,-0.37,1.074,0.239,69,1
669,-0.364,0.932,0.205,69,1
670,-0.375,0.871,0.156,69,1
671,-0.379,0.866,0.14,69,1
672,-0.379,0.882,0.153,69,1
673,-0.386,0.874,0.153,69,1
674,-0.467,0.855,0.156,69,1
675,-0.552,0.861,0.249,69,1
676,-0.544,0.892,0.371,69,1
677,-0.527,0.907,0.435,69,1
678,-0.529,0.916,0.427,69,1
679,-0.52,0.966,0.342,69,1
680,-0.509,1.062,0.23,69,1
681,-0.499,1.184,0.144,69,1
682,-0.475,1.215,0.081,69,1
683,-0.438,1.142,0.03,69,1
684,-0.401,1.082,0.028,69,1
685,-0.376,1.048,0.06,69,1
686,-0.35,0.988,0.084,69,1
687,-0.317,0.911,0.101,69,1
688,-0.298,0.852,0.113,69,1
689,-0.301,0.811,0.129,71,1
690,-0.325,0.776,0.146,71,1
691,-0.319,0.729,0.135,71,1
692,-0.309,0.678,0.104,71,1
693,-0.364,0.67,0.106,71,1
694,-0.396,0.739,0.122,71,1
695,-0.391,0.881,0.123,71,1
696,-0.407,1.071,0.109,71,1
697,-0.407,1.208,0.119,71,1
698,-0.345,1.155,0.174,71,1
699,-0.247,1.034,0.194,71,1
700,-0.18,1.021,0.149,71,1
701,-0.159,1.031,0.111,71,1
702,-0.179,0.994,0.144,71,1
703,-0.223,0.921,0.214,71,1
704,-0.263,0.845,0.276,71,1
705,-0.296,0.809,0.327,71,1
706,-0.319,0.814,0.359,71,1
707,-0.329,0.834,0.387,71,1
708,-0.341,0.86,0.398,71,1
709,-0.35,0.909,0.362,71,1
710,-0.328,0.995,0.298,71,1
711,-0.291,1.15,0.223,71,1
712,-0.29,1.301,0.18,71,1
713,-0.312,1.306,0.182,71,1
714,-0.304,1.206,0.166,71,1
715,-0.299,1.112,0.136,71,1
716,-0.33,1.041,0.118,71,1
717,-0.348,0.97,0.131,71,1
718,-0.319,0.912,0.177,71,1
719,-0.274,0.888,0.208,71,1
720,-0.27,0.887,0.208,71,1
721,-0.311,0.869,0.173,71,1
722,-0.353,0.821,0.119,71,1
723,-0.371,0.78,0.083,71,1
724,-0.358,0.8,0.061,71,1
725,-0.342,0.878,0.05,71,1
726,-0.351,0.96,0.085,71,1
727,-0.349,1.002,0.131,71,1
728,-0.338,1.004,0.189,71,1
729,-0.292,0.97,0.243,71,1
730,-0.183,0.974,0.181,71,1
731,-0.121,1.069,0.081,71,1
732,-0.175,1.14,0.071,71,1
733,-0.285,1.067,0.162,71,1
734,-0.352,0.914,0.271,71,1
735,-0.372,0.808,0.358,71,1
736,-0.353,0.756,0.392,71,1
737,-0.266,0.751,0.351,71,1
738,-0.186,0.77,0.281,71,1
739,-0.205,0.813,0.232,71,1
740,-0.314,0.913,0.246,71,1
741,-0.418,1.057,0.3,71,1
742,-0.442,1.245,0.327,71,1
743,-0.409,1.382,0.278,71,1
744,-0.322,1.326,0.22,71,1
745,-0.232,1.179,0.199,71,1
746,-0.236,1.082,0.184,71,1
747,-0.302,0.996,0.179,71,1
748,-0.343,0.893,0.173,71,1
749,-0.352,0.812,0.163,71,1
750,-0.367,0.778,0.131,71,1
751,-0.394,0.775,0.093,71,1
752,-0.41,0.773,0.083,71,1
753,-0.405,0.768,0.077,71,1
754,-0.395,0.77,0.065,71,1
755,-0.39,0.789,0.068,71,1
756,-0.385,0.835,0.09,71,1
757,-0.372,0.944,0.108,71,1
758,-0.341,1.124,0.104,71,1
759,-0.307,1.234,0.143,71,1
760,-0.263,1.177,0.23,71,1
761,-0.161,1.104,0.224,71,1
762,-0.058,1.079,0.123,71,1
763,-0.076,1.034,0.083,71,1
764,-0.198,0.96,0.14,71,1
765,-0.305,0.876,0.218,71,1
766,-0.374,0.818,0.267,71,1
767,-0.38,0.815,0.292,71,1
768,-0.303,0.868,0.306,71,1
769,-0.234,0.913,0.324,71,1
770,-0.223,0.919,0.341,71,1
771,-0.255,0.939,0.345,71,1
772,-0.284,0.977,0.335,71,1
773,-0.282,1.041,0.302,71,1
774,-0.304,1.193,0.259,71,1
775,-0.34,1.284,0.243,71,1
776,-0.3,1.202,0.239,71,1
777,-0.241,1.107,0.218,71,1
778,-0.268,1.068,0.192,71,1
779,-0.314,1.041,0.18,73,1
780,-0.291,1.008,0.186,73,1
781,-0.246,0.961,0.193,73,1
782,-0.231,0.916,0.178,73,1
783,-0.237,0.869,0.154,73,1
784,-0.243,0.818,0.133,73,1
785,-0.256,0.772,0.111,73,1
786,-0.261,0.743,0.101,73,1
787,-0.248,0.758,0.12,73,1
788,-0.255,0.828,0.16,73,1
789,-0.276,0.964,0.198,74,1
790,-0.283,1.162,0.184,74,1
791,-0.286,1.304,0.167,74,1
792,-0.27,1.239,0.202,74,1
793,-0.218,1.099,0.211,74,1
794,-0.178,1.046,0.174,74,1
795,-0.184,1.01,0.149,74,1
796,-0.227,0.937,0.172,74,1
797,-0.278,0.838,0.214,74,1
798,-0.31,0.762,0.233,74,1
799,-0.321,0.747,0.242,74,1
800,-0.321,0.794,0.262,74,1
801,-0.312,0.851,0.293,74,1
802,-0.295,0.865,0.33,74,1
803,-0.278,0.888,0.345,74,1
804,-0.274,0.966,0.325,74,1
805,-0.277,1.1,0.293,74,1
806,-0.305,1.268,0.281,74,1
807,-0.338,1.301,0.273,74,1
808,-0.331,1.208,0.234,74,1
809,-0.319,1.136,0.186,73,1
810,-0.321,1.082,0.152,73,1
811,-0.297,1.032,0.126,73,1
812,-0.253,0.987,0.117,73,1
813,-0.228,0.939,0.111,73,1
814,-0.225,0.884,0.099,73,1
815,-0.233,0.835,0.095,73,1
816,-0.241,0.806,0.102,73,1
817,-0.247,0.784,0.111,73,1
818,-0.25,0.782,0.118,73,1
819,-0.253,0.838,0.131,75,1
820,-0.256,0.934,0.154,75,1
821,-0.251,1.08,0.16,75,1
822,-0.24,1.26,0.147,75,1
823,-0.222,1.287,0.156,75,1
824,-0.2,1.143,0.19,75,1
825,-0.196,1.036,0.198,75,1
826,-0.209,1.001,0.175,75,1
827,-0.215,0.955,0.17,75,1
828,-0.23,0.89,0.192,75,1
829,-0.268,0.828,0.211,77,1
830,-0.301,0.796,0.213,77,1
831,-0.319,0.826,0.272,77,1
832,-0.311,0.866,0.311,77,1
833,-0.302,0.907,0.33,77,1
834,-0.288,0.981,0.315,77,1
835,-0.272,1.055,0.291,77,1
836,-0.279,1.133,0.27,77,1
837,-0.325,1.224,0.256,77,1
838,-0.359,1.207,0.241,77,1
839,-0.353,1.119,0.207,76,1
840,-0.355,1.096,0.177,76,1
841,-0.349,1.094,0.159,76,1
842,-0.304,1.059,0.143,76,1
843,-0.254,1.009,0.137,76,1
844,-0.233,0.96,0.132,76,1
845,-0.234,0.92,0.123,76,1
846,-0.236,0.882,0.113,76,1
847,-0.235,0.83,0.101,76,1
848,-0.23,0.777,0.092,76,1
849,-0.233,0.757,0.088,76,1
850,-0.249,0.797,0.105,76,1
851,-0.261,0.894,0.142,76,1
852,-0.261,1.039,0.152,76,1
853,-0.264,1.184,0.143,76,1
854,-0.26,1.221,0.17,76,1
855,-0.239,1.201,0.195,76,1
856,-0.218,1.185,0.176,76,1
857,-0.213,1.121,0.171,76,1
858,-0.227,1.015,0.201,76,1
859,-0.252,0.888,0.223,76,1
860,-0.271,0.78,0.22,76,1
861,-0.285,0.753,0.202,76,1
862,-0.313,0.822,0.204,76,1
863,-0.362,0.902,0.265,76,1
864,-0.393,0.933,0.345,76,1
865,-0.377,0.936,0.416,76,1
866,-0.27,0.964,0.434,76,1
867,-0.105,1.026,0.354,76,1
868,-0.045,1.108,0.281,76,1
869,-0.151,1.213,0.304,76,1
870,-0.28,1.269,0.293,76,1
871,-0.315,1.217,0.209,76,1
872,-0.324,1.104,0.136,76,1
873,-0.343,0.984,0.097,76,1
874,-0.323,0.876,0.096,76,1
875,-0.291,0.804,0.112,76,1
876,-0.299,0.777,0.118,76,1
877,-0.337,0.794,0.132,76,1
878,-0.369,0.808,0.169,76,1
879,-0.383,0.778,0.21,76,1
880,-0.371,0.755,0.243,76,1
881,-0.328,0.774,0.248,76,1
882,-0.284,0.827,0.237,76,1
883,-0.26,0.947,0.21,76,1
884,-0.264,1.14,0.157,76,1
885,-0.265,1.218,0.166,76,1
886,-0.239,1.134,0.23,76,1
887,-0.19,1.06,0.222,76,1
888,-0.133,1.021,0.17,76,1
889,-0.115,0.973,0.154,77,1
890,-0.154,0.926,0.175,77,1
891,-0.212,0.912,0.198,77,1
892,-0.265,0.913,0.214,77,1
893,-0.297,0.911,0.24,77,1
894,-0.307,0.909,0.285,77,1
895,-0.309,0.907,0.323,77,1
896,-0.307,0.927,0.324,77,1
897,-0.307,0.986,0.306,77,1
898,-0.305,1.044,0.291,77,1
899,-0.306,1.122,0.27,79,1
900,-0.312,1.222,0.264,79,1
901,-0.322,1.21,0.256,79,1
902,-0.339,1.118,0.215,79,1
903,-0.385,1.088,0.172,79,1
904,-0.417,1.095,0.162,79,1
905,-0.381,1.068,0.153,79,1
906,-0.31,1.012,0.137,79,1
907,-0.253,0.955,0.137,79,1
908,-0.224,0.916,0.142,79,1
909,-0.224,0.89,0.123,81,1
910,-0.255,0.852,0.084,81,1
911,-0.287,0.789,0.013,81,1
912,-0.34,0.739,-0.06,81,1
913,-0.4,0.778,-0.041,81,1
914,-0.4,0.889,0.039,81,1
915,-0.34,1.044,0.105,81,1
916,-0.246,1.166,0.138,81,1
917,-0.153,1.149,0.177,81,1
918,-0.102,1.081,0.185,81,1
919,-0.129,1.044,0.121,82,1
920,-0.212,1.005,0.08,82,1
921,-0.294,0.937,0.12,82,1
922,-0.345,0.854,0.184,82,1
923,-0.396,0.817,0.217,82,1
924,-0.48,0.838,0.223,82,1
925,-0.546,0.875,0.215,82,1
926,-0.541,0.882,0.259,82,1
927,-0.435,0.853,0.3,82,1
928,-0.359,0.857,0.269,82,1
929,-0.41,0.935,0.229,84,1
930,-0.47,1.083,0.198,84,1
931,-0.488,1.261,0.186,84,1
932,-0.482,1.324,0.17,84,1
933,-0.449,1.288,0.114,84,1
934,-0.391,1.232,0.051,84,1
935,-0.322,1.137,0.047,84,1
936,-0.261,1.012,0.077,84,1
937,-0.234,0.888,0.112,84,1
938,-0.249,0.791,0.143,84,1
939,-0.289,0.729,0.159,85,1
940,-0.321,0.693,0.166,85,1
941,-0.32,0.667,0.152,85,1
942,-0.306,0.686,0.118,85,1
943,-0.301,0.78,0.095,85,1
944,-0.301,0.902,0.1,85,1
945,-0.279,1.043,0.105,85,1
946,-0.252,1.206,0.11,85,1
947,-0.237,1.264,0.121,85,1
948,-0.192,1.151,0.147,85,1
949,-0.118,1.05,0.166,87,1
950,-0.079,1.08,0.152,87,1
951,-0.106,1.094,0.181,87,1
952,-0.16,0.974,0.251,87,1
953,-0.202,0.79,0.28,87,1
954,-0.227,0.662,0.26,87,1
955,-0.258,0.662,0.249,87,1
956,-0.307,0.771,0.276,87,1
957,-0.344,0.881,0.319,87,1
958,-0.341,0.928,0.352,87,1
959,-0.319,0.948,0.365,89,1
960,-0.299,0.982,0.351,89,1
961,-0.281,1.065,0.328,89,1
962,-0.279,1.175,0.306,89,1
963,-0.295,1.198,0.277,89,1
964,-0.302,1.151,0.225,89,1
965,-0.3,1.14,0.172,89,1
966,-0.31,1.158,0.141,89,1
967,-0.299,1.145,0.123,89,1
968,-0.25,1.077,0.118,89,1
969,-0.189,0.983,0.182,90,1
970,-0.138,0.876,0.199,90,1
971,-0.148,0.772,0.138,90,1
972,-0.223,0.71,0.123,90,1
973,-0.286,0.707,0.126,90,1
974,-0.297,0.745,0.134,90,1
975,-0.294,0.791,0.128,90,1
976,-0.314,0.851,0.118,90,1
977,-0.342,0.967,0.112,90,1
978,-0.363,1.151,0.099,90,1
979,-0.367,1.274,0.123,92,1
980,-0.296,1.219,0.189,92,1
981,-0.177,1.105,0.203,92,1
982,-0.117,1.052,0.159,92,1
983,-0.137,1.013,0.132,92,1
984,-0.2,0.952,0.148,92,1
985,-0.262,0.879,0.184,92,1
986,-0.299,0.825,0.213,92,1
987,-0.316,0.804,0.245,92,1
988,-0.322,0.808,0.279,92,1
989,-0.309,0.831,0.309,93,1
990,-0.286,0.853,0.325,93,1
991,-0.267,0.893,0.313,93,1
992,-0.268,0.968,0.288,93,1
993,-0.283,1.07,0.269,93,1
994,-0.312,1.223,0.253,93,1
995,-0.347,1.323,0.224,93,1
996,-0.35,1.27,0.162,93,1
997,-0.333,1.166,0.098,93,1
998,-0.341,1.09,0.072,93,1
999,-0.344,1.024,0.082,95,1
1000,-0.315,0.965,0.108,95,1
1001,-0.283,0.911,0.126,95,1
1002,-0.269,0.86,0.123,95,1
1003,-0.267,0.813,0.114,95,1
1004,-0.262,0.769,0.11,95,1
1005,-0.258,0.733,0.106,95,1
1006,-0.257,0.732,0.104,95,1
1007,-0.257,0.785,0.099,95,1
1008,-0.258,0.88,0.097,95,1
1009,-0.265,1.027,0.112,97,1
1010,-0.278,1.212,0.121,97,1
1011,-0.28,1.265,0.149,97,1
1012,-0.24,1.157,0.202,97,1
1013,-0.152,1.077,0.192,97,1
1014,-0.097,1.051,0.131,97,1
1015,-0.101,1.013,0.108,97,1
1016,-0.126,0.941,0.123,97,1
1017,-0.176,0.853,0.164,97,1
1018,-0.238,0.794,0.207,97,1
1019,-0.289,0.784,0.227,98,1
1020,-0.328,0.818,0.243,98,1
1021,-0.376,0.857,0.251,98,1
1022,-0.434,0.89,0.249,98,1
1023,-0.465,0.937,0.246,98,1
1024,-0.448,1.03,0.235,98,1
1025,-0.403,1.184,0.223,98,1
1026,-0.379,1.286,0.221,98,1
1027,-0.369,1.247,0.197,98,1
1028,-0.358,1.183,0.142,98,1
1029,-0.368,1.147,0.094,100,1
1030,-0.368,1.087,0.069,100,1
1031,-0.335,1.017,0.073,100,1
1032,-0.301,0.96,0.091,100,1
1033,-0.308,0.927,0.108,100,1
1034,-0.293,0.904,0.103,100,1
1035,-0.228,0.855,0.074,100,1
1036,-0.22,0.803,0.064,100,1
1037,-0.262,0.781,0.059,100,1
1038,-0.293,0.787,0.039,100,1
1039,-0.315,0.817,0.04,101,1
1040,-0.347,0.895,0.081,101,1
1041,-0.378,1.028,0.102,101,1
1042,-0.387,1.156,0.102,101,1
1043,-0.349,1.15,0.147,101,1
1044,-0.278,1.066,0.2,101,1
1045,-0.225,1.044,0.215,101,1
1046,-0.208,1.03,0.211,101,1
1047,-0.227,0.975,0.216,101,1
1048,-0.26,0.895,0.235,101,1
1049,-0.284,0.837,0.25,103,1
1050,-0.287,0.817,0.261,103,1
1051,-0.28,0.825,0.272,103,1
1052,-0.277,0.831,0.282,103,1
1053,-0.281,0.822,0.281,103,1
1054,-0.295,0.861,0.27,103,1
1055,-0.309,0.936,0.266,103,1
1056,-0.311,1.036,0.259,103,1
1057,-0.325,1.195,0.254,103,1
1058,-0.348,1.258,0.265,103,1
1059,-0.341,1.188,0.242,105,1
1060,-0.323,1.14,0.181,105,1
1061,-0.315,1.115,0.137,105,1
1062,-0.294,1.06,0.128,105,1
1063,-0.266,0.978,0.133,105,1
1064,-0.255,0.9,0.137,105,1
1065,-0.257,0.861,0.135,105,1
1066,-0.264,0.859,0.126,105,1
1067,-0.268,0.865,0.131,105,1
1068,-0.262,0.853,0.144,105,1
1069,-0.259,0.846,0.146,106,1
1070,-0.268,0.864,0.138,106,1
1071,-0.288,0.91,0.144,106,1
1072,-0.315,1.01,0.146,106,1
1073,-0.341,1.127,0.125,106,1
1074,-0.349,1.121,0.14,106,1
1075,-0.322,1.011,0.19,106,1
1076,-0.287,0.968,0.206,106,1
1077,-0.283,0.978,0.195,106,1
1078,-0.278,0.95,0.196,106,1
1079,-0.266,0.884,0.216,108,1
1080,-0.279,0.824,0.235,108,1
1081,-0.304,0.813,0.244,108,1
1082,-0.316,0.843,0.26,108,1
1083,-0.312,0.88,0.287,108,1
1084,-0.301,0.888,0.311,108,1
1085,-0.294,0.895,0.317,108,1
1086,-0.297,0.948,0.303,108,1
1087,-0.299,1.02,0.283,108,1
1088,-0.313,1.125,0.274,108,1
1089,-0.355,1.214,0.288,109,1
1090,-0.367,1.186,0.278,109,1
1091,-0.334,1.13,0.217,109,1
1092,-0.309,1.117,0.163,109,1
1093,-0.29,1.091,0.136,109,1
1094,-0.258,1.048,0.12,109,1
1095,-0.24,0.993,0.112,109,1
1096,-0.24,0.94,0.106,109,1
1097,-0.241,0.904,0.098,109,1
1098,-0.239,0.875,0.097,109,1
1099,-0.239,0.844,0.108,111,1
1100,-0.24,0.812,0.119,111,1
1101,-0.243,0.808,0.128,111,1
1102,-0.248,0.853,0.152,111,1
1103,-0.257,0.94,0.18,111,1
1104,-0.26,1.046,0.18,111,1
1105,-0.271,1.125,0.176,111,1
1106,-0.28,1.111,0.209,111,1
1107,-0.269,1.068,0.237,111,1
1108,-0.26,1.063,0.221,111,1
1109,-0.253,1.025,0.204,112,1
1110,-0.253,0.945,0.214,112,1
1111,-0.267,0.867,0.229,112,1
1112,-0.281,0.824,0.234,112,1
1113,-0.291,0.828,0.24,112,1
1114,-0.301,0.848,0.259,112,1
1115,-0.305,0.839,0.282,112,1
1116,-0.301,0.834,0.291,112,1
1117,-0.305,0.893,0.287,112,1
1118,-0.317,0.987,0.279,112,1
1119,-0.334,1.119,0.268,113,1
1120,-0.36,1.259,0.269,113,1
1121,-0.365,1.267,0.235,113,1
1122,-0.329,1.189,0.15,113,1
1123,-0.282,1.137,0.099,113,1
1124,-0.275,1.078,0.103,113,1
1125,-0.294,0.996,0.121,113,1
1126,-0.305,0.913,0.13,113,1
1127,-0.307,0.856,0.135,113,1
1128,-0.301,0.83,0.138,113,1
1129,-0.291,0.817,0.144,114,1
1130,-0.28,0.806,0.156,114,1
1131,-0.272,0.791,0.164,114,1
1132,-0.277,0.794,0.154,114,1
1133,-0.288,0.845,0.142,114,1
1134,-0.294,0.943,0.131,114,1
1135,-0.288,1.049,0.102,114,1
1136,-0.288,1.133,0.084,114,1
1137,-0.291,1.129,0.108,114,1
1138,-0.277,1.065,0.141,114,1
1139,-0.265,1.028,0.153,114,1
1140,-0.263,1,0.156,114,1
1141,-0.261,0.96,0.174,114,1
1142,-0.27,0.921,0.195,114,1
1143,-0.294,0.9,0.209,114,1
1144,-0.315,0.893,0.224,114,1
1145,-0.316,0.892,0.239,114,1
1146,-0.3,0.879,0.252,114,1
1147,-0.291,0.87,0.255,114,1
1148,-0.298,0.913,0.248,114,1
1149,-0.305,0.994,0.234,115,1
1150,-0.319,1.114,0.22,115,1
1151,-0.351,1.232,0.237,115,1
1152,-0.346,1.217,0.237,115,1
1153,-0.317,1.157,0.185,115,1
1154,-0.323,1.143,0.148,115,1
1155,-0.325,1.105,0.141,115,1
1156,-0.294,1.048,0.136,115,1
1157,-0.262,0.986,0.131,115,1
1158,-0.243,0.918,0.126,115,1
1159,-0.23,0.851,0.122,115,1
1160,-0.22,0.803,0.124,115,1
1161,-0.216,0.781,0.124,115,1
1162,-0.223,0.801,0.117,115,1
1163,-0.232,0.858,0.112,115,1
1164,-0.236,0.922,0.111,115,1
1165,-0.24,1.017,0.11,115,1
1166,-0.245,1.14,0.112,115,1
1167,-0.239,1.185,0.13,115,1
1168,-0.209,1.098,0.156,115,1
1169,-0.176,1.022,0.163,115,1
1170,-0.175,1.031,0.152,115,1
1171,-0.187,1.029,0.155,115,1
1172,-0.207,0.979,0.189,115,1
1173,-0.235,0.898,0.23,115,1
1174,-0.253,0.823,0.256,115,1
1175,-0.26,0.784,0.276,115,1
1176,-0.262,0.787,0.297,115,1
1177,-0.265,0.809,0.319,115,1
1178,-0.278,0.843,0.334,115,1
1179,-0.304,0.923,0.328,115,1
1180,-0.324,1.023,0.305,115,1
1181,-0.33,1.138,0.277,115,1
1182,-0.348,1.255,0.261,115,1
1183,-0.36,1.24,0.252,115,1
1184,-0.343,1.135,0.221,115,1
1185,-0.332,1.088,0.185,115,1
1186,-0.326,1.079,0.166,115,1
1187,-0.291,1.054,0.148,115,1
1188,-0.256,1.002,0.132,115,1
1189,-0.242,0.941,0.123,116,1
1190,-0.233,0.883,0.114,116,1
1191,-0.226,0.835,0.11,116,1
1192,-0.224,0.8,0.121,116,1
1193,-0.223,0.769,0.132,116,1
1194,-0.227,0.774,0.126,116,1
1195,-0.238,0.843,0.128,116,1
1196,-0.247,0.951,0.151,116,1
1197,-0.249,1.09,0.175,116,1
1198,-0.243,1.239,0.182,116,1
1199,-0.208,1.25,0.194,116,1
1200,-0.145,1.139,0.206,116,1
1201,-0.109,1.076,0.189,116,1
1202,-0.13,1.031,0.174,116,1
1203,-0.173,0.944,0.196,116,1
1204,-0.202,0.843,0.224,116,1
1205,-0.227,0.782,0.229,116,1
1206,-0.257,0.781,0.224,116,1
1207,-0.284,0.82,0.231,116,1
1208,-0.296,0.857,0.26,116,1
1209,-0.293,0.866,0.298,116,1
1210,-0.276,0.896,0.315,116,1
1211,-0.256,0.966,0.308,116,1
1212,-0.246,1.051,0.287,116,1
1213,-0.27,1.171,0.27,116,1
1214,-0.33,1.233,0.278,116,1
1215,-0.359,1.168,0.268,116,1
1216,-0.348,1.114,0.229,116,1
1217,-0.335,1.112,0.2,116,1
1218,-0.302,1.085,0.175,116,1
1219,-0.255,1.019,0.16,116,1
1220,-0.228,0.939,0.157,116,1
1221,-0.224,0.875,0.145,116,1
1222,-0.222,0.838,0.134,116,1
1223,-0.215,0.813,0.134,116,1
1224,-0.214,0.792,0.144,116,1
1225,-0.221,0.796,0.143,116,1
1226,-0.229,0.847,0.129,116,1
1227,-0.235,0.923,0.133,116,1
1228,-0.242,1.022,0.142,116,1
1229,-0.261,1.156,0.138,116,1
1230,-0.267,1.194,0.158,116,1
1231,-0.229,1.107,0.191,116,1
1232,-0.19,1.055,0.193,116,1
1233,-0.187,1.033,0.18,116,1
1234,-0.199,0.985,0.186,116,1
1235,-0.22,0.914,0.212,116,1
1236,-0.244,0.842,0.224,116,1
1237,-0.268,0.792,0.221,116,1
1238,-0.3,0.773,0.236,116,1
1239,-0.32,0.793,0.28,116,1
1240,-0.309,0.826,0.329,116,1
1241,-0.271,0.876,0.35,116,1
1242,-0.235,0.983,0.32,116,1
1243,-0.239,1.104,0.269,116,1
1244,-0.278,1.226,0.237,116,1
1245,-0.329,1.306,0.223,116,1
1246,-0.361,1.246,0.188,116,1
1247,-0.345,1.144,0.141,116,1
1248,-0.326,1.087,0.121,116,1
1249,-0.32,1.035,0.117,116,1
1250,-0.301,0.984,0.107,116,1
1251,-0.279,0.936,0.105,116,1
1252,-0.263,0.889,0.114,116,1
1253,-0.268,0.851,0.122,116,1
1254,-0.278,0.826,0.14,116,1
1255,-0.274,0.802,0.162,116,1
1256,-0.27,0.777,0.165,116,1
1257,-0.284,0.782,0.155,116,1
1258,-0.316,0.837,0.155,116,1
1259,-0.343,0.932,0.163,116,1
1260,-0.347,1.054,0.156,116,1
1261,-0.337,1.142,0.156,116,1
1262,-0.312,1.119,0.187,116,1
1263,-0.27,1.078,0.2,116,1
1264,-0.242,1.082,0.159,116,1
1265,-0.238,1.054,0.136,116,1
1266,-0.255,0.975,0.175,116,1
1267,-0.279,0.88,0.215,116,1
1268,-0.291,0.813,0.229,116,1
1269,-0.296,0.784,0.243,116,1
1270,-0.295,0.79,0.265,116,1
1271,-0.291,0.815,0.289,116,1
1272,-0.292,0.834,0.311,116,1
1273,-0.303,0.883,0.313,116,1
1274,-0.304,0.978,0.299,116,1
1275,-0.286,1.1,0.275,116,1
1276,-0.291,1.219,0.262,116,1
1277,-0.306,1.201,0.251,116,1
1278,-0.297,1.118,0.207,116,1
1279,-0.306,1.121,0.167,116,1
1280,-0.333,1.134,0.152,116,1
1281,-0.314,1.098,0.134,116,1
1282,-0.271,1.03,0.133,116,1
1283,-0.259,0.956,0.14,116,1
1284,-0.27,0.89,0.124,116,1
1285,-0.289,0.831,0.112,116,1
1286,-0.297,0.774,0.149,116,1
1287,-0.279,0.737,0.202,116,1
1288,-0.246,0.742,0.195,116,1
1289,-0.244,0.805,0.164,116,1
1290,-0.279,0.904,0.162,116,1
1291,-0.313,1.015,0.163,116,1
1292,-0.325,1.14,0.172,116,1
1293,-0.312,1.168,0.189,116,1
1294,-0.286,1.097,0.192,116,1
1295,-0.261,1.071,0.177,116,1
1296,-0.25,1.054,0.163,116,1
1297,-0.246,0.979,0.181,116,1
1298,-0.252,0.88,0.218,116,1
1299,-0.268,0.806,0.239,116,1
1300,-0.283,0.777,0.253,116,1
1301,-0.3,0.785,0.274,116,1
1302,-0.313,0.802,0.305,116,1
1303,-0.315,0.803,0.329,116,1
1304,-0.318,0.839,0.325,116,1
1305,-0.327,0.929,0.305,116,1
1306,-0.338,1.063,0.273,116,1
1307,-0.364,1.248,0.245,116,1
1308,-0.413,1.332,0.235,116,1
1309,-0.41,1.244,0.206,116,1
1310,-0.336,1.154,0.158,116,1
1311,-0.285,1.093,0.142,116,1
1312,-0.27,1.003,0.16,116,1
1313,-0.264,0.901,0.178,116,1
1314,-0.27,0.817,0.18,116,1
1315,-0.272,0.775,0.166,116,1
1316,-0.262,0.772,0.145,116,1
1317,-0.257,0.781,0.14,116,1
1318,-0.267,0.772,0.145,116,1
1319,-0.288,0.77,0.142,116,1
1320,-0.317,0.821,0.135,116,1
1321,-0.336,0.924,0.138,116,1
1322,-0.341,1.095,0.092,116,1
1323,-0.304,1.31,0.059,116,1
1324,-0.151,1.337,0.087,116,1
1325,-0.002,1.181,0.11,116,1
1326,0,1.059,0.118,116,1
1327,-0.099,0.989,0.104,116,1
1328,-0.224,0.944,0.114,116,1
1329,-0.298,0.91,0.154,116,1
1330,-0.299,0.871,0.184,116,1
1331,-0.276,0.846,0.207,116,1
1332,-0.27,0.858,0.229,116,1
1333,-0.273,0.875,0.244,116,1
1334,-0.233,0.85,0.241,116,1
1335,-0.21,0.829,0.251,116,1
1336,-0.267,0.888,0.279,116,1
1337,-0.309,0.996,0.275,116,1
1338,-0.327,1.147,0.254,116,1
1339,-0.354,1.281,0.243,116,1
1340,-0.352,1.253,0.213,116,1
1341,-0.323,1.166,0.158,116,1
1342,-0.302,1.134,0.126,116,1
1343,-0.275,1.087,0.115,116,1
1344,-0.232,1.015,0.108,116,1
1345,-0.21,0.945,0.113,116,1
1346,-0.213,0.887,0.12,116,1
1347,-0.222,0.84,0.127,116,1
1348,-0.233,0.811,0.14,116,1
1349,-0.276,0.802,0.166,116,1
1350,-0.335,0.82,0.154,116,1
1351,-0.367,0.854,0.102,116,1
1352,-0.391,0.868,0.103,116,1
1353,-0.409,0.887,0.134,116,1
1354,-0.409,0.944,0.131,116,1
1355,-0.383,0.998,0.132,116,1
1356,-0.348,0.989,0.175,116,1
1357,-0.314,1.001,0.208,116,1
1358,-0.28,1.07,0.203,116,1
1359,-0.255,1.085,0.207,116,1
1360,-0.236,1.028,0.235,116,1
1361,-0.235,0.939,0.248,116,1
1362,-0.24,0.854,0.241,116,1
1363,-0.24,0.807,0.243,116,1
1364,-0.235,0.799,0.246,116,1
1365,-0.246,0.797,0.238,116,1
1366,-0.276,0.802,0.242,116,1
1367,-0.295,0.851,0.262,116,1
1368,-0.31,0.949,0.278,116,1
1369,-0.322,1.092,0.274,116,1
1370,-0.338,1.231,0.272,116,1
1371,-0.343,1.225,0.273,116,1
1372,-0.326,1.144,0.239,116,1
1373,-0.318,1.132,0.202,116,1
1374,-0.306,1.127,0.194,116,1
1375,-0.28,1.075,0.179,116,1
1376,-0.265,0.995,0.154,116,1
1377,-0.271,0.927,0.131,116,1
1378,-0.276,0.875,0.119,116,1
1379,-0.267,0.833,0.119,116,1
1380,-0.256,0.803,0.13,116,1
1381,-0.248,0.793,0.138,116,1
1382,-0.245,0.822,0.133,116,1
1383,-0.256,0.886,0.139,116,1
1384,-0.262,0.978,0.145,116,1
1385,-0.25,1.092,0.133,116,1
1386,-0.235,1.188,0.126,116,1
1387,-0.223,1.17,0.142,116,1
1388,-0.215,1.095,0.17,116,1
1389,-0.209,1.064,0.19,116,1
1390,-0.208,1.028,0.198,116,1
1391,-0.214,0.955,0.212,116,1
1392,-0.23,0.863,0.235,116,1
1393,-0.255,0.794,0.247,116,1
1394,-0.276,0.771,0.251,116,1
1395,-0.292,0.801,0.264,116,1
1396,-0.302,0.842,0.291,116,1
1397,-0.305,0.858,0.319,116,1
1398,-0.305,0.893,0.325,116,1
1399,-0.303,0.98,0.309,116,1
1400,-0.301,1.097,0.286,116,1
1401,-0.317,1.227,0.278,116,1
1402,-0.336,1.263,0.282,116,1
1403,-0.321,1.182,0.254,116,1
1404,-0.295,1.116,0.203,116,1
1405,-0.283,1.079,0.169,116,1
1406,-0.274,1.041,0.144,116,1
1407,-0.261,0.999,0.133,116,1
1408,-0.251,0.936,0.142,116,1
1409,-0.245,0.873,0.166,116,1
1410,-0.235,0.833,0.185,116,1
1411,-0.217,0.807,0.191,116,1
1412,-0.199,0.791,0.204,116,1
1413,-0.194,0.797,0.21,116,1
1414,-0.2,0.85,0.189,116,1
1415,-0.213,0.93,0.156,116,1
1416,-0.224,1.036,0.13,116,1
1417,-0.239,1.172,0.122,116,1
1418,-0.252,1.19,0.151,116,1
1419,-0.236,1.097,0.193,116,1
1420,-0.204,1.056,0.197,116,1
1421,-0.191,1.047,0.187,116,1
1422,-0.195,1.005,0.21,116,1
1423,-0.212,0.93,0.254,116,1
1424,-0.237,0.855,0.279,116,1
1425,-0.251,0.805,0.285,116,1
1426,-0.254,0.778,0.291,116,1
1427,-0.258,0.773,0.301,116,1
1428,-0.267,0.784,0.318,116,1
1429,-0.282,0.83,0.32,116,1
1430,-0.3,0.929,0.298,116,1
1431,-0.314,1.058,0.275,116,1
1432,-0.334,1.208,0.268,116,1
1433,-0.354,1.282,0.294,116,1
1434,-0.343,1.23,0.3,116,1
1435,-0.315,1.127,0.205,116,1
1436,-0.299,1.043,0.195,116,1
1437,-0.281,0.932,0.199,116,1
1438,-0.288,0.823,0.193,116,1
1439,-0.323,0.754,0.19,117,1
1440,-0.339,0.74,0.207,117,1
1441,-0.32,0.741,0.207,117,1
1442,-0.315,0.729,0.188,117,1
1443,-0.329,0.744,0.166,117,1
1444,-0.349,0.796,0.149,117,1
1445,-0.365,0.865,0.163,117,1
1446,-0.337,0.962,0.179,117,1
1447,-0.28,1.133,0.188,117,1
1448,-0.198,1.233,0.21,117,1
1449,-0.098,1.192,0.223,117,1
1450,-0.034,1.134,0.205,117,1
1451,-0.019,1.067,0.197,117,1
1452,-0.035,0.984,0.216,117,1
1453,-0.088,0.9,0.224,117,1
1454,-0.156,0.828,0.227,117,1
1455,-0.206,0.791,0.231,117,1
1456,-0.245,0.8,0.24,117,1
1457,-0.278,0.828,0.263,117,1
1458,-0.291,0.834,0.295,117,1
1459,-0.288,0.855,0.324,117,1
1460,-0.289,0.931,0.332,117,1
1461,-0.296,1.024,0.313,117,1
1462,-0.314,1.143,0.286,117,1
1463,-0.347,1.252,0.287,117,1
1464,-0.358,1.212,0.294,117,1
1465,-0.335,1.112,0.248,117,1
1466,-0.322,1.089,0.188,117,1
1467,-0.317,1.085,0.159,117,1
1468,-0.292,1.059,0.153,117,1
1469,-0.266,1.006,0.167,118,1
1470,-0.253,0.948,0.179,118,1
1471,-0.239,0.914,0.17,118,1
1472,-0.214,0.894,0.156,118,1
1473,-0.192,0.858,0.152,118,1
1474,-0.19,0.808,0.142,118,1
1475,-0.208,0.789,0.121,118,1
1476,-0.228,0.833,0.109,118,1
1477,-0.237,0.92,0.113,118,1
1478,-0.239,1.031,0.117,118,1
1479,-0.251,1.168,0.125,118,1
1480,-0.256,1.217,0.162,118,1
1481,-0.231,1.154,0.207,118,1
1482,-0.204,1.089,0.215,118,1
1483,-0.192,1.034,0.205,118,1
1484,-0.193,0.953,0.205,118,1
1485,-0.215,0.862,0.209,118,1
1486,-0.255,0.798,0.218,118,1
1487,-0.289,0.771,0.226,118,1
1488,-0.308,0.788,0.247,118,1
1489,-0.314,0.827,0.282,118,1
1490,-0.306,0.855,0.31,118,1
1491,-0.294,0.9,0.312,118,1
1492,-0.302,0.983,0.297,118,1
1493,-0.318,1.072,0.283,118,1
1494,-0.334,1.175,0.272,118,1
1495,-0.351,1.233,0.267,118,1
1496,-0.344,1.186,0.247,118,1
1497,-0.33,1.151,0.199,118,1
1498,-0.332,1.168,0.156,118,1
1499,-0.322,1.158,0.127,118,1
1500,-0.293,1.092,0.118,118,1
1501,-0.269,0.978,0.118,118,1
1502,-0.253,0.874,0.108,118,1
1503,-0.237,0.813,0.101,118,1
1504,-0.218,0.785,0.109,118,1
1505,-0.205,0.774,0.119,118,1
1506,-0.199,0.773,0.115,118,1
1507,-0.208,0.814,0.098,118,1
1508,-0.234,0.899,0.091,118,1
1509,-0.266,1.007,0.112,118,1
1510,-0.286,1.153,0.131,118,1
1511,-0.291,1.234,0.171,118,1
1512,-0.269,1.158,0.244,118,1
1513,-0.217,1.074,0.266,118,1
1514,-0.169,1.048,0.234,118,1
1515,-0.158,1.003,0.215,118,1
1516,-0.186,0.932,0.231,118,1
1517,-0.229,0.857,0.251,118,1
1518,-0.262,0.813,0.252,118,1
1519,-0.277,0.802,0.254,118,1
1520,-0.275,0.806,0.27,118,1
1521,-0.273,0.798,0.293,118,1
1522,-0.28,0.8,0.309,118,1
1523,-0.294,0.855,0.308,118,1
1524,-0.305,0.947,0.305,118,1
1525,-0.322,1.079,0.3,118,1
1526,-0.352,1.222,0.309,118,1
1527,-0.357,1.239,0.326,118,1
1528,-0.32,1.191,0.296,118,1
1529,-0.279,1.194,0.247,118,1
1530,-0.251,1.175,0.22,118,1
1531,-0.225,1.103,0.205,118,1
1532,-0.21,1.01,0.202,118,1
1533,-0.211,0.927,0.196,118,1
1534,-0.214,0.861,0.175,118,1
1535,-0.21,0.798,0.151,118,1
1536,-0.201,0.731,0.148,118,1
1537,-0.197,0.678,0.162,118,1
1538,-0.205,0.7,0.178,118,1
1539,-0.216,0.806,0.192,118,1
1540,-0.216,0.958,0.189,118,1
1541,-0.226,1.15,0.171,118,1
1542,-0.273,1.291,0.194,118,1
1543,-0.298,1.237,0.278,118,1
1544,-0.248,1.119,0.314,118,1
1545,-0.181,1.091,0.281,118,1
1546,-0.152,1.054,0.253,118,1
1547,-0.168,0.967,0.265,118,1
1548,-0.205,0.873,0.299,118,1
1549,-0.236,0.811,0.309,118,1
1550,-0.256,0.787,0.299,118,1
1551,-0.271,0.789,0.307,118,1
1552,-0.291,0.794,0.337,118,1
1553,-0.307,0.798,0.381,118,1
1554,-0.299,0.825,0.411,118,1
1555,-0.274,0.884,0.409,118,1
1556,-0.254,0.959,0.385,118,1
1557,-0.262,1.097,0.367,118,1
1558,-0.291,1.229,0.375,118,1
1559,-0.288,1.232,0.35,117,1
1560,-0.255,1.212,0.27,117,1
1561,-0.238,1.22,0.214,117,1
1562,-0.235,1.165,0.191,117,1
1563,-0.223,1.053,0.181,117,1
1564,-0.212,0.938,0.184,117,1
1565,-0.211,0.843,0.188,117,1
1566,-0.206,0.766,0.186,117,1
1567,-0.197,0.702,0.187,117,1
1568,-0.197,0.66,0.193,117,1
1569,-0.213,0.678,0.206,117,1
1570,-0.229,0.78,0.225,117,1
1571,-0.227,0.943,0.225,117,1
1572,-0.22,1.14,0.179,117,1
1573,-0.245,1.315,0.146,117,1
1574,-0.287,1.291,0.222,117,1
1575,-0.269,1.129,0.309,117,1
1576,-0.204,1.042,0.291,117,1
1577,-0.161,1,0.224,117,1
1578,-0.172,0.95,0.203,117,1
1579,-0.225,0.893,0.244,117,1
1580,-0.26,0.843,0.293,117,1
1581,-0.261,0.82,0.322,117,1
1582,-0.251,0.824,0.326,117,1
1583,-0.245,0.821,0.323,117,1
1584,-0.242,0.813,0.332,117,1
1585,-0.244,0.847,0.34,117,1
1586,-0.249,0.918,0.328,117,1
1587,-0.26,1.027,0.295,117,1
1588,-0.3,1.201,0.28,117,1
1589,-0.349,1.277,0.3,117,1
1590,-0.348,1.187,0.276,117,1
1591,-0.311,1.129,0.205,117,1
1592,-0.277,1.117,0.167,117,1
1593,-0.25,1.075,0.158,117,1
1594,-0.228,1.018,0.158,117,1
1595,-0.224,0.969,0.158,117,1
1596,-0.226,0.932,0.148,117,1
1597,-0.223,0.891,0.136,117,1
1598,-0.225,0.842,0.144,117,1
1599,-0.232,0.789,0.165,117,1
1600,-0.236,0.742,0.176,117,1
1601,-0.239,0.74,0.176,117,1
1602,-0.243,0.803,0.182,117,1
1603,-0.247,0.923,0.187,117,1
1604,-0.256,1.084,0.158,117,1
1605,-0.287,1.236,0.149,117,1
1606,-0.302,1.237,0.213,117,1
1607,-0.271,1.14,0.26,117,1
1608,-0.236,1.085,0.24,117,1
1609,-0.218,1.026,0.217,117,1
1610,-0.223,0.939,0.22,117,1
1611,-0.248,0.859,0.236,117,1
1612,-0.272,0.815,0.245,117,1
1613,-0.292,0.812,0.248,117,1
1614,-0.294,0.839,0.249,117,1
1615,-0.281,0.857,0.256,117,1
1616,-0.268,0.852,0.267,117,1
1617,-0.261,0.869,0.273,117,1
1618,-0.256,0.936,0.274,117,1
1619,-0.255,1.043,0.266,117,1
1620,-0.284,1.157,0.275,117,1
1621,-0.331,1.191,0.315,117,1
1622,-0.337,1.128,0.324,117,1
1623,-0.307,1.083,0.278,117,1
1624,-0.288,1.096,0.228,117,1
1625,-0.271,1.092,0.19,117,1
1626,-0.237,1.041,0.161,117,1
1627,-0.207,0.969,0.144,117,1
1628,-0.192,0.889,0.127,117,1
1629,-0.185,0.809,0.11,117,1
1630,-0.193,0.754,0.107,117,1
1631,-0.214,0.731,0.129,117,1
1632,-0.232,0.742,0.158,117,1
1633,-0.241,0.808,0.18,117,1
1634,-0.244,0.904,0.201,117,1
1635,-0.243,1.027,0.219,117,1
1636,-0.241,1.173,0.226,117,1
1637,-0.245,1.21,0.246,117,1
1638,-0.248,1.16,0.264,117,1
1639,-0.234,1.15,0.254,117,1
1640,-0.176,1.125,0.225,117,1
1641,-0.105,1.018,0.212,117,1
1642,-0.087,0.878,0.225,117,1
1643,-0.133,0.76,0.23,117,1
1644,-0.19,0.685,0.219,117,1
1645,-0.222,0.675,0.218,117,1
1646,-0.237,0.716,0.239,117,1
1647,-0.245,0.771,0.265,117,1
1648,-0.252,0.863,0.276,117,1
1649,-0.259,0.993,0.267,117,1
1650,-0.268,1.127,0.25,117,1
1651,-0.294,1.27,0.259,117,1
1652,-0.33,1.333,0.294,117,1
1653,-0.326,1.249,0.287,117,1
1654,-0.291,1.152,0.225,117,1
1655,-0.281,1.113,0.178,117,1
1656,-0.284,1.061,0.171,117,1
1657,-0.259,0.964,0.172,117,1
1658,-0.215,0.873,0.161,117,1
1659,-0.189,0.816,0.144,117,1
1660,-0.185,0.772,0.13,117,1
1661,-0.19,0.734,0.133,117,1
1662,-0.202,0.707,0.144,117,1
1663,-0.221,0.722,0.145,117,1
1664,-0.24,0.801,0.159,117,1
1665,-0.247,0.911,0.181,117,1
1666,-0.248,1.082,0.173,117,1
1667,-0.257,1.296,0.152,117,1
1668,-0.248,1.338,0.159,117,1
1669,-0.196,1.216,0.183,117,1
1670,-0.138,1.123,0.196,117,1
1671,-0.116,1.043,0.175,117,1
1672,-0.126,0.926,0.166,117,1
1673,-0.163,0.819,0.188,117,1
1674,-0.205,0.756,0.209,117,1
1675,-0.228,0.741,0.226,117,1
1676,-0.243,0.756,0.248,117,1
1677,-0.262,0.765,0.273,117,1
1678,-0.287,0.778,0.292,117,1
1679,-0.311,0.857,0.304,117,1
1680,-0.318,0.994,0.3,117,1
1681,-0.314,1.205,0.284,117,1
1682,-0.319,1.345,0.296,117,1
1683,-0.321,1.287,0.282,117,1
1684,-0.308,1.208,0.207,117,1
1685,-0.291,1.168,0.149,117,1
1686,-0.254,1.108,0.126,117,1
1687,-0.214,1.02,0.111,117,1
1688,-0.212,0.916,0.101,117,1
1689,-0.233,0.828,0.102,117,1
1690,-0.245,0.771,0.117,117,1
1691,-0.24,0.736,0.143,117,1
1692,-0.223,0.725,0.173,117,1
1693,-0.208,0.758,0.199,117,1
1694,-0.202,0.835,0.215,117,1
1695,-0.206,0.942,0.226,117,1
1696,-0.219,1.072,0.228,117,1
1697,-0.232,1.167,0.203,117,1
1698,-0.234,1.185,0.157,117,1
1699,-0.241,1.191,0.132,116,1
1700,-0.273,1.17,0.129,116,1
1701,-0.282,1.068,0.138,116,1
1702,-0.255,0.927,0.169,116,1
1703,-0.243,0.799,0.2,116,1
1704,-0.26,0.716,0.222,116,1
1705,-0.295,0.702,0.255,116,1
1706,-0.334,0.745,0.297,116,1
1707,-0.363,0.826,0.334,116,1
1708,-0.375,0.942,0.354,116,1
1709,-0.377,1.047,0.359,116,1
1710,-0.368,1.165,0.351,116,1
1711,-0.362,1.283,0.34,116,1
1712,-0.359,1.29,0.31,116,1
1713,-0.344,1.235,0.239,116,1
1714,-0.341,1.189,0.17,116,1
1715,-0.332,1.118,0.144,116,1
1716,-0.29,1.011,0.145,116,1
1717,-0.257,0.897,0.146,116,1
1718,-0.251,0.819,0.148,116,1
1719,-0.25,0.779,0.15,116,1
1720,-0.248,0.752,0.159,116,1
1721,-0.245,0.727,0.174,116,1
1722,-0.244,0.723,0.173,116,1
1723,-0.246,0.772,0.164,116,1
1724,-0.251,0.879,0.158,116,1
1725,-0.261,1.041,0.133,116,1
1726,-0.278,1.183,0.111,116,1
1727,-0.281,1.226,0.145,116,1
1728,-0.26,1.241,0.189,116,1
1729,-0.232,1.233,0.197,116,1
1730,-0.201,1.124,0.201,116,1
1731,-0.193,0.948,0.217,116,1
1732,-0.224,0.786,0.228,116,1
1733,-0.26,0.689,0.232,116,1
1734,-0.284,0.676,0.237,116,1
1735,-0.299,0.737,0.253,116,1
1736,-0.319,0.823,0.274,116,1
1737,-0.344,0.913,0.298,116,1
1738,-0.361,1.01,0.311,116,1
1739,-0.347,1.115,0.295,115,1
1740,-0.327,1.251,0.287,115,1
1741,-0.334,1.311,0.303,115,1
1742,-0.336,1.275,0.282,115,1
1743,-0.325,1.252,0.234,115,1
1744,-0.304,1.21,0.216,115,1
1745,-0.274,1.121,0.216,115,1
1746,-0.252,1.006,0.211,115,1
1747,-0.236,0.899,0.19,115,1
1748,-0.22,0.836,0.157,115,1
1749,-0.202,0.814,0.122,115,1
1750,-0.196,0.798,0.08,115,1
1751,-0.208,0.773,0.061,115,1
1752,-0.225,0.788,0.063,115,1
1753,-0.223,0.874,0.058,115,1
1754,-0.207,1.021,0.069,115,1
1755,-0.199,1.187,0.094,115,1
1756,-0.211,1.246,0.173,115,1
1757,-0.221,1.199,0.295,115,1
1758,-0.192,1.159,0.327,115,1
1759,-0.145,1.099,0.272,115,1
1760,-0.138,0.973,0.257,115,1
1761,-0.181,0.822,0.288,115,1
1762,-0.232,0.704,0.299,115,1
1763,-0.266,0.665,0.301,115,1
1764,-0.283,0.711,0.305,115,1
1765,-0.305,0.793,0.304,115,1
1766,-0.339,0.885,0.298,115,1
1767,-0.376,0.991,0.287,115,1
1768,-0.395,1.09,0.272,115,1
1769,-0.401,1.217,0.271,115,1
1770,-0.404,1.317,0.288,115,1
1771,-0.386,1.312,0.277,115,1
1772,-0.364,1.277,0.236,115,1
1773,-0.339,1.205,0.214,115,1
1774,-0.298,1.063,0.215,115,1
1775,-0.262,0.913,0.211,115,1
1776,-0.247,0.821,0.183,115,1
1777,-0.244,0.799,0.143,115,1
1778,-0.239,0.813,0.116,115,1
1779,-0.231,0.826,0.107,114,1
1780,-0.232,0.831,0.099,114,1
1781,-0.236,0.869,0.077,114,1
1782,-0.232,0.95,0.068,114,1
1783,-0.218,1.068,0.07,114,1
1784,-0.208,1.21,0.067,114,1
1785,-0.205,1.265,0.099,114,1
1786,-0.179,1.225,0.167,114,1
1787,-0.121,1.183,0.204,114,1
1788,-0.081,1.113,0.199,114,1
1789,-0.107,0.983,0.208,114,1
1790,-0.173,0.834,0.234,114,1
1791,-0.227,0.712,0.244,114,1
1792,-0.258,0.656,0.242,114,1
1793,-0.272,0.693,0.248,114,1
1794,-0.285,0.789,0.265,114,1
1795,-0.299,0.888,0.281,114,1
1796,-0.3,1,0.287,114,1
1797,-0.301,1.101,0.283,114,1
1798,-0.314,1.226,0.281,114,1
1799,-0.333,1.324,0.304,114,1
1800,-0.337,1.301,0.3,114,1
1801,-0.331,1.266,0.254,114,1
1802,-0.33,1.239,0.224,114,1
1803,-0.304,1.172,0.211,114,1
1804,-0.258,1.053,0.199,114,1
1805,-0.234,0.928,0.181,114,1
1806,-0.229,0.84,0.166,114,1
1807,-0.201,0.768,0.143,114,1
1808,-0.135,0.684,0.092,114,1
1809,-0.105,0.642,0.046,114,1
1810,-0.141,0.717,0.023,114,1
1811,-0.159,0.881,0.018,114,1
1812,-0.13,1.071,0.054,114,1
1813,-0.115,1.257,0.104,114,1
1814,-0.155,1.365,0.149,114,1
1815,-0.2,1.308,0.208,114,1
1816,-0.192,1.202,0.229,114,1
1817,-0.148,1.135,0.191,114,1
1818,-0.111,1.031,0.157,114,1
1819,-0.122,0.893,0.162,113,1
1820,-0.172,0.773,0.166,113,1
1821,-0.216,0.717,0.164,113,1
1822,-0.242,0.731,0.181,113,1
1823,-0.27,0.782,0.221,113,1
1824,-0.3,0.831,0.283,113,1
1825,-0.313,0.889,0.336,113,1
1826,-0.311,0.996,0.35,113,1
1827,-0.302,1.105,0.344,113,1
1828,-0.309,1.225,0.343,113,1
1829,-0.345,1.294,0.352,113,1
1830,-0.364,1.278,0.328,113,1
1831,-0.352,1.267,0.271,113,1
1832,-0.32,1.232,0.221,113,1
1833,-0.27,1.136,0.184,113,1
1834,-0.22,1.011,0.161,113,1
1835,-0.198,0.902,0.141,113,1
1836,-0.196,0.828,0.123,113,1
1837,-0.197,0.776,0.112,113,1
1838,-0.197,0.729,0.114,113,1
1839,-0.197,0.69,0.122,113,1
1840,-0.201,0.688,0.111,113,1
1841,-0.216,0.747,0.103,113,1
1842,-0.237,0.89,0.115,113,1
1843,-0.256,1.139,0.128,113,1
1844,-0.263,1.353,0.151,113,1
1845,-0.222,1.378,0.183,113,1
1846,-0.135,1.32,0.185,113,1
1847,-0.081,1.223,0.162,113,1
1848,-0.092,1.044,0.164,113,1
1849,-0.147,0.853,0.191,112,1
1850,-0.217,0.727,0.204,112,1
1851,-0.266,0.685,0.214,112,1
1852,-0.292,0.718,0.231,112,1
1853,-0.306,0.789,0.256,112,1
1854,-0.314,0.861,0.284,112,1
1855,-0.318,0.961,0.304,112,1
1856,-0.317,1.075,0.308,112,1
1857,-0.314,1.214,0.289,112,1
1858,-0.325,1.348,0.292,112,1
1859,-0.334,1.338,0.294,112,1
1860,-0.322,1.273,0.236,112,1
1861,-0.315,1.244,0.166,112,1
1862,-0.314,1.161,0.134,112,1
1863,-0.291,1.02,0.13,112,1
1864,-0.263,0.876,0.133,112,1
1865,-0.249,0.769,0.129,112,1
1866,-0.237,0.714,0.12,112,1
1867,-0.224,0.709,0.111,112,1
1868,-0.21,0.73,0.105,112,1
1869,-0.201,0.779,0.087,112,1
1870,-0.199,0.869,0.072,112,1
1871,-0.203,0.991,0.081,112,1
1872,-0.213,1.184,0.073,112,1
1873,-0.22,1.361,0.06,112,1
1874,-0.188,1.333,0.129,112,1
1875,-0.102,1.203,0.208,112,1
1876,-0.028,1.12,0.192,112,1
1877,-0.031,1.022,0.152,112,1
1878,-0.108,0.9,0.169,112,1
1879,-0.194,0.795,0.209,112,1
1880,-0.25,0.736,0.229,112,1
1881,-0.286,0.734,0.243,112,1
1882,-0.316,0.768,0.28,112,1
1883,-0.335,0.812,0.321,112,1
1884,-0.329,0.889,0.321,112,1
1885,-0.315,0.993,0.29,112,1
1886,-0.313,1.102,0.265,112,1
1887,-0.328,1.228,0.26,112,1
1888,-0.353,1.294,0.264,112,1
1889,-0.358,1.321,0.228,112,1
1890,-0.356,1.357,0.162,112,1
1891,-0.355,1.318,0.123,112,1
1892,-0.324,1.185,0.123,112,1
1893,-0.28,1.02,0.138,112,1
1894,-0.256,0.885,0.133,112,1
1895,-0.243,0.802,0.114,112,1
1896,-0.223,0.758,0.098,112,1
1897,-0.203,0.736,0.093,112,1
1898,-0.199,0.738,0.083,112,1
1899,-0.21,0.781,0.053,112,1
1900,-0.24,0.834,0.048,112,1
1901,-0.292,0.925,0.086,112,1
1902,-0.325,1.109,0.105,112,1
1903,-0.316,1.273,0.092,112,1
1904,-0.259,1.304,0.072,112,1
1905,-0.191,1.262,0.049,112,1
1906,-0.187,1.188,0.051,112,1
1907,-0.226,1.061,0.103,112,1
1908,-0.25,0.904,0.162,112,1
1909,-0.251,0.772,0.192,112,1
1910,-0.25,0.702,0.179,112,1
1911,-0.289,0.703,0.167,112,1
1912,-0.358,0.775,0.204,112,1
1913,-0.394,0.86,0.262,112,1
1914,-0.374,0.934,0.306,112,1
1915,-0.338,1.017,0.307,112,1
1916,-0.324,1.138,0.273,112,1
1917,-0.348,1.284,0.253,112,1
1918,-0.38,1.358,0.237,112,1
1919,-0.383,1.367,0.186,112,1
1920,-0.377,1.349,0.14,112,1
1921,-0.351,1.256,0.116,112,1
1922,-0.297,1.103,0.098,112,1
1923,-0.253,0.956,0.087,112,1
1924,-0.231,0.845,0.083,112,1
1925,-0.219,0.775,0.077,112,1
1926,-0.208,0.74,0.068,112,1
1927,-0.206,0.728,0.07,112,1
1928,-0.212,0.735,0.072,112,1
1929,-0.219,0.793,0.064,111,1
1930,-0.226,0.901,0.066,111,1
1931,-0.236,1.049,0.07,111,1
1932,-0.254,1.218,0.08,111,1
1933,-0.27,1.266,0.135,111,1
1934,-0.264,1.222,0.202,111,1
1935,-0.241,1.203,0.223,111,1
1936,-0.208,1.132,0.224,111,1
1937,-0.178,0.99,0.239,111,1
1938,-0.187,0.844,0.248,111,1
1939,-0.227,0.746,0.24,111,1
1940,-0.273,0.717,0.224,111,1
1941,-0.322,0.746,0.221,111,1
1942,-0.36,0.796,0.251,111,1
1943,-0.378,0.856,0.293,111,1
1944,-0.383,0.946,0.305,111,1
1945,-0.368,1.063,0.288,111,1
1946,-0.347,1.218,0.278,111,1
1947,-0.342,1.29,0.301,111,1
1948,-0.333,1.254,0.289,111,1
1949,-0.327,1.272,0.221,111,1
1950,-0.332,1.277,0.172,111,1
1951,-0.316,1.185,0.151,111,1
1952,-0.284,1.048,0.139,111,1
1953,-0.263,0.911,0.114,111,1
1954,-0.247,0.81,0.081,111,1
1955,-0.229,0.761,0.059,111,1
1956,-0.226,0.751,0.067,111,1
1957,-0.216,0.754,0.092,111,1
1958,-0.182,0.77,0.096,111,1
1959,-0.169,0.828,0.092,110,1
1960,-0.192,0.936,0.089,110,1
1961,-0.223,1.093,0.077,110,1
1962,-0.251,1.229,0.085,110,1
1963,-0.262,1.281,0.122,110,1
1964,-0.254,1.291,0.141,110,1
1965,-0.249,1.243,0.138,110,1
1966,-0.234,1.103,0.163,110,1
1967,-0.22,0.931,0.197,110,1
1968,-0.238,0.791,0.203,110,1
1969,-0.286,0.707,0.2,110,1
1970,-0.338,0.699,0.212,110,1
1971,-0.372,0.755,0.244,110,1
1972,-0.385,0.833,0.273,110,1
1973,-0.377,0.935,0.281,110,1
1974,-0.355,1.05,0.275,110,1
1975,-0.331,1.164,0.264,110,1
1976,-0.332,1.264,0.263,110,1
1977,-0.351,1.282,0.254,110,1
1978,-0.355,1.25,0.211,110,1
1979,-0.348,1.23,0.162,110,1
1980,-0.318,1.201,0.132,110,1
1981,-0.28,1.133,0.125,110,1
1982,-0.254,1.032,0.122,110,1
1983,-0.238,0.927,0.102,110,1
1984,-0.229,0.843,0.082,110,1
1985,-0.219,0.784,0.076,110,1
1986,-0.213,0.734,0.086,110,1
1987,-0.209,0.71,0.099,110,1
1988,-0.208,0.743,0.101,110,1
1989,-0.21,0.836,0.101,110,1
1990,-0.226,0.993,0.104,110,1
1991,-0.256,1.175,0.094,110,1
1992,-0.29,1.265,0.117,110,1
1993,-0.285,1.263,0.166,110,1
1994,-0.25,1.24,0.164,110,1
1995,-0.233,1.165,0.143,110,1
1996,-0.23,1.021,0.156,110,1
1997,-0.246,0.862,0.187,110,1
1998,-0.276,0.743,0.208,110,1
1999,-0.296,0.689,0.226,110,1
2000,-0.306,0.719,0.25,110,1
2001,-0.314,0.803,0.272,110,1
2002,-0.329,0.894,0.289,110,1
2003,-0.344,1.003,0.304,110,1
2004,-0.342,1.119,0.303,110,1
2005,-0.323,1.248,0.299,110,1
2006,-0.323,1.335,0.317,110,1
2007,-0.329,1.322,0.304,110,1
2008,-0.318,1.291,0.234,110,1
2009,-0.306,1.245,0.174,109,1
2010,-0.285,1.134,0.155,109,1
2011,-0.263,0.986,0.153,109,1
2012,-0.25,0.857,0.135,109,1
2013,-0.242,0.781,0.111,109,1
2014,-0.222,0.749,0.096,109,1
2015,-0.199,0.733,0.098,109,1
2016,-0.184,0.728,0.105,109,1
2017,-0.177,0.76,0.096,109,1
2018,-0.175,0.847,0.083,109,1
2019,-0.188,0.987,0.086,109,1
2020,-0.225,1.171,0.087,109,1
2021,-0.27,1.301,0.116,109,1
2022,-0.276,1.278,0.204,109,1
2023,-0.218,1.201,0.259,109,1
2024,-0.149,1.136,0.229,109,1
2025,-0.12,1.027,0.193,109,1
2026,-0.15,0.888,0.2,109,1
2027,-0.208,0.769,0.219,109,1
2028,-0.257,0.707,0.229,109,1
2029,-0.296,0.725,0.239,109,1
2030,-0.321,0.787,0.27,109,1
2031,-0.331,0.837,0.314,109,1
2032,-0.327,0.91,0.333,109,1
2033,-0.314,1.028,0.322,109,1
2034,-0.299,1.172,0.294,109,1
2035,-0.306,1.313,0.285,109,1
2036,-0.337,1.331,0.288,109,1
2037,-0.358,1.267,0.254,109,1
2038,-0.37,1.224,0.213,109,1
2039,-0.355,1.163,0.193,110,1
2040,-0.296,1.065,0.18,110,1
2041,-0.235,0.944,0.161,110,1
2042,-0.209,0.843,0.13,110,1
2043,-0.207,0.794,0.092,110,1
2044,-0.208,0.78,0.066,110,1
2045,-0.21,0.779,0.07,110,1
2046,-0.217,0.78,0.088,110,1
2047,-0.221,0.805,0.089,110,1
2048,-0.218,0.879,0.09,110,1
2049,-0.218,1.02,0.102,110,1
2050,-0.231,1.204,0.094,110,1
2051,-0.249,1.302,0.121,110,1
2052,-0.233,1.281,0.191,110,1
2053,-0.175,1.235,0.211,110,1
2054,-0.132,1.151,0.183,110,1
2055,-0.134,1.002,0.173,110,1
2056,-0.173,0.847,0.187,110,1
2057,-0.228,0.736,0.193,110,1
2058,-0.269,0.683,0.193,110,1
2059,-0.292,0.695,0.206,110,1
2060,-0.312,0.758,0.232,110,1
2061,-0.332,0.84,0.257,110,1
2062,-0.342,0.964,0.266,110,1
2063,-0.339,1.091,0.274,110,1
2064,-0.327,1.195,0.287,110,1
2065,-0.325,1.279,0.299,110,1
2066,-0.333,1.272,0.289,110,1
2067,-0.332,1.251,0.237,110,1
2068,-0.338,1.266,0.188,110,1
2069,-0.336,1.232,0.173,110,1
2070,-0.3,1.131,0.171,110,1
2071,-0.259,1,0.157,110,1
2072,-0.236,0.882,0.123,110,1
2073,-0.212,0.801,0.089,110,1
2074,-0.188,0.758,0.069,110,1
2075,-0.185,0.735,0.07,110,1
2076,-0.201,0.739,0.077,110,1
2077,-0.221,0.802,0.085,110,1
2078,-0.229,0.907,0.1,110,1
2079,-0.218,1.043,0.102,111,1
2080,-0.217,1.19,0.099,111,1
2081,-0.236,1.247,0.145,111,1
2082,-0.232,1.229,0.214,111,1
2083,-0.194,1.204,0.229,111,1
2084,-0.162,1.128,0.216,111,1
2085,-0.167,0.987,0.224,111,1
2086,-0.197,0.832,0.238,111,1
2087,-0.23,0.725,0.238,111,1
2088,-0.26,0.69,0.236,111,1
2089,-0.281,0.727,0.251,110,1
2090,-0.298,0.797,0.278,110,1
2091,-0.32,0.88,0.283,110,1
2092,-0.335,1.003,0.269,110,1
2093,-0.337,1.132,0.265,110,1
2094,-0.35,1.281,0.278,110,1
2095,-0.375,1.378,0.308,110,1
2096,-0.377,1.34,0.308,110,1
2097,-0.349,1.272,0.265,110,1
2098,-0.315,1.2,0.234,110,1
2099,-0.28,1.09,0.225,110,1
2100,-0.244,0.961,0.213,110,1
2101,-0.224,0.853,0.182,110,1
2102,-0.218,0.79,0.143,110,1
2103,-0.211,0.764,0.113,110,1
2104,-0.203,0.757,0.094,110,1
2105,-0.202,0.761,0.087,110,1
2106,-0.211,0.793,0.088,110,1
2107,-0.222,0.875,0.105,110,1
2108,-0.226,1.013,0.134,110,1
2109,-0.22,1.175,0.138,110,1
2110,-0.222,1.262,0.129,110,1
2111,-0.227,1.232,0.171,110,1
2112,-0.223,1.206,0.231,110,1
2113,-0.22,1.191,0.246,110,1
2114,-0.199,1.082,0.245,110,1
2115,-0.175,0.911,0.263,110,1
2116,-0.187,0.762,0.269,110,1
2117,-0.216,0.684,0.256,110,1
2118,-0.248,0.685,0.254,110,1
2119,-0.28,0.739,0.274,110,1
2120,-0.297,0.793,0.311,110,1
2121,-0.308,0.869,0.335,110,1
2122,-0.316,0.991,0.328,110,1
2123,-0.316,1.123,0.305,110,1
2124,-0.322,1.262,0.306,110,1
2125,-0.343,1.317,0.341,110,1
2126,-0.335,1.256,0.327,110,1
2127,-0.3,1.225,0.242,110,1
2128,-0.273,1.205,0.172,110,1
2129,-0.254,1.125,0.154,110,1
2130,-0.235,1.01,0.164,110,1
2131,-0.224,0.893,0.158,110,1
2132,-0.229,0.81,0.135,110,1
2133,-0.229,0.763,0.123,110,1
2134,-0.214,0.732,0.122,110,1
2135,-0.199,0.721,0.123,110,1
2136,-0.2,0.739,0.119,110,1
2137,-0.224,0.802,0.136,110,1
2138,-0.25,0.937,0.171,110,1
2139,-0.255,1.159,0.168,110,1
2140,-0.254,1.331,0.16,110,1
2141,-0.227,1.322,0.178,110,1
2142,-0.157,1.262,0.166,110,1
2143,-0.117,1.197,0.137,110,1
2144,-0.136,1.058,0.153,110,1
2145,-0.177,0.883,0.193,110,1
2146,-0.213,0.738,0.208,110,1
2147,-0.241,0.664,0.201,110,1
2148,-0.27,0.669,0.199,110,1
2149,-0.306,0.736,0.222,110,1
2150,-0.34,0.818,0.264,110,1
2151,-0.355,0.922,0.297,110,1
2152,-0.348,1.052,0.31,110,1
2153,-0.315,1.177,0.307,110,1
2154,-0.29,1.297,0.315,110,1
2155,-0.305,1.33,0.331,110,1
2156,-0.327,1.291,0.292,110,1
2157,-0.332,1.267,0.225,110,1
2158,-0.324,1.206,0.19,110,1
2159,-0.297,1.093,0.179,109,1
2160,-0.264,0.957,0.166,109,1
2161,-0.245,0.831,0.145,109,1
2162,-0.233,0.748,0.118,109,1
2163,-0.215,0.715,0.1,109,1
2164,-0.2,0.721,0.09,109,1
2165,-0.199,0.757,0.081,109,1
2166,-0.204,0.824,0.069,109,1
2167,-0.208,0.926,0.072,109,1
2168,-0.216,1.08,0.074,109,1
2169,-0.23,1.262,0.066,109,1
2170,-0.233,1.319,0.111,109,1
2171,-0.202,1.261,0.19,109,1
2172,-0.139,1.216,0.213,109,1
2173,-0.085,1.132,0.198,109,1
2174,-0.084,0.982,0.209,109,1
2175,-0.142,0.833,0.229,109,1
2176,-0.212,0.733,0.231,109,1
2177,-0.267,0.698,0.224,109,1
2178,-0.309,0.718,0.239,109,1
2179,-0.345,0.774,0.298,109,1
2180,-0.351,0.851,0.346,109,1
2181,-0.326,0.957,0.339,109,1
2182,-0.298,1.073,0.312,109,1
2183,-0.292,1.208,0.286,109,1
2184,-0.319,1.309,0.286,109,1
2185,-0.34,1.275,0.294,109,1
2186,-0.335,1.234,0.245,109,1
2187,-0.337,1.232,0.18,109,1
2188,-0.325,1.162,0.154,109,1
2189,-0.287,1.058,0.153,109,1
2190,-0.259,0.976,0.152,109,1
2191,-0.242,0.905,0.144,109,1
2192,-0.221,0.847,0.135,109,1
2193,-0.208,0.808,0.142,109,1
2194,-0.206,0.782,0.159,109,1
2195,-0.202,0.773,0.156,109,1
2196,-0.207,0.802,0.143,109,1
2197,-0.225,0.882,0.144,109,1
2198,-0.25,1.018,0.133,109,1
2199,-0.289,1.146,0.149,109,1
2200,-0.315,1.147,0.216,109,1
2201,-0.304,1.125,0.253,109,1
2202,-0.281,1.157,0.242,109,1
2203,-0.268,1.123,0.216,109,1
2204,-0.268,0.994,0.202,109,1
2205,-0.287,0.835,0.198,109,1
2206,-0.301,0.719,0.172,109,1
2207,-0.302,0.688,0.14,109,1
2208,-0.322,0.747,0.141,109,1
2209,-0.388,0.812,0.178,108,1
2210,-0.457,0.838,0.246,108,1
2211,-0.46,0.915,0.312,108,1
2212,-0.408,1.066,0.327,108,1
2213,-0.364,1.225,0.323,108,1
2214,-0.376,1.307,0.35,108,1
2215,-0.403,1.298,0.35,108,1
2216,-0.401,1.27,0.299,108,1
2217,-0.373,1.221,0.25,108,1
2218,-0.322,1.121,0.202,108,1
2219,-0.28,0.989,0.162,108,1
2220,-0.261,0.862,0.136,108,1
2221,-0.249,0.775,0.117,108,1
2222,-0.23,0.729,0.094,108,1
2223,-0.217,0.72,0.076,108,1
2224,-0.222,0.767,0.074,108,1
2225,-0.226,0.861,0.068,108,1
2226,-0.207,0.965,0.053,108,1
2227,-0.189,1.065,0.062,108,1
2228,-0.197,1.166,0.086,108,1
2229,-0.208,1.219,0.115,108,1
2230,-0.19,1.195,0.172,108,1
2231,-0.135,1.158,0.212,108,1
2232,-0.082,1.106,0.198,108,1
2233,-0.086,0.997,0.196,108,1
2234,-0.145,0.871,0.231,108,1
2235,-0.21,0.766,0.249,108,1
2236,-0.255,0.701,0.255,108,1
2237,-0.286,0.697,0.261,108,1
2238,-0.311,0.752,0.259,108,1
2239,-0.336,0.834,0.276,108,1
2240,-0.36,0.946,0.309,108,1
2241,-0.373,1.072,0.327,108,1
2242,-0.359,1.205,0.326,108,1
2243,-0.332,1.331,0.322,108,1
2244,-0.324,1.349,0.311,108,1
2245,-0.333,1.299,0.264,108,1
2246,-0.352,1.244,0.206,108,1
2247,-0.356,1.143,0.183,108,1
2248,-0.322,1.002,0.185,108,1
2249,-0.283,0.87,0.186,108,1
2250,-0.27,0.785,0.175,108,1
2251,-0.275,0.748,0.132,108,1
2252,-0.279,0.747,0.094,108,1
2253,-0.273,0.759,0.102,108,1
2254,-0.258,0.791,0.113,108,1
2255,-0.238,0.864,0.109,108,1
2256,-0.22,0.941,0.118,108,1
2257,-0.21,1.048,0.121,108,1
2258,-0.223,1.172,0.115,108,1
2259,-0.239,1.206,0.157,107,1
2260,-0.212,1.195,0.208,107,1
2261,-0.167,1.165,0.221,107,1
2262,-0.13,1.045,0.234,107,1
2263,-0.128,0.874,0.252,107,1
2264,-0.176,0.732,0.251,107,1
2265,-0.238,0.661,0.235,107,1
2266,-0.3,0.686,0.241,107,1
2267,-0.346,0.778,0.291,107,1
2268,-0.367,0.864,0.357,107,1
2269,-0.378,0.941,0.394,107,1
2270,-0.386,1.041,0.388,107,1
2271,-0.373,1.145,0.364,107,1
2272,-0.348,1.249,0.347,107,1
2273,-0.351,1.286,0.327,107,1
2274,-0.373,1.256,0.274,107,1
2275,-0.404,1.217,0.211,107,1
2276,-0.424,1.148,0.175,107,1
2277,-0.389,1.044,0.166,107,1
2278,-0.326,0.93,0.161,107,1
2279,-0.287,0.844,0.145,107,1
2280,-0.265,0.806,0.127,107,1
2281,-0.244,0.791,0.109,107,1
2282,-0.231,0.77,0.109,107,1
2283,-0.231,0.757,0.119,107,1
2284,-0.239,0.776,0.115,107,1
2285,-0.249,0.829,0.121,107,1
2286,-0.253,0.932,0.146,107,1
2287,-0.25,1.087,0.158,107,1
2288,-0.254,1.217,0.163,107,1
2289,-0.241,1.258,0.18,107,1
2290,-0.197,1.23,0.17,107,1
2291,-0.17,1.145,0.146,107,1
2292,-0.188,1.013,0.154,107,1
2293,-0.229,0.877,0.181,107,1
2294,-0.267,0.765,0.199,107,1
2295,-0.292,0.704,0.209,107,1
2296,-0.306,0.722,0.233,107,1
2297,-0.318,0.797,0.25,107,1
2298,-0.352,0.894,0.259,107,1
2299,-0.39,0.998,0.274,108,1
2300,-0.397,1.105,0.276,108,1
2301,-0.381,1.254,0.278,108,1
2302,-0.362,1.356,0.304,108,1
2303,-0.335,1.331,0.298,108,1
2304,-0.312,1.291,0.231,108,1
2305,-0.311,1.239,0.17,108,1
2306,-0.319,1.122,0.166,108,1
2307,-0.324,0.969,0.223,108,1
2308,-0.31,0.852,0.252,108,1
2309,-0.273,0.792,0.197,108,1
2310,-0.241,0.751,0.131,108,1
2311,-0.222,0.729,0.094,108,1
2312,-0.22,0.723,0.084,108,1
2313,-0.233,0.747,0.084,108,1
2314,-0.241,0.823,0.08,108,1
2315,-0.242,0.946,0.084,108,1
2316,-0.246,1.104,0.1,108,1
2317,-0.265,1.207,0.134,108,1
2318,-0.283,1.21,0.192,108,1
2319,-0.266,1.205,0.225,108,1
2320,-0.22,1.173,0.215,108,1
2321,-0.174,1.058,0.213,108,1
2322,-0.166,0.908,0.234,108,1
2323,-0.201,0.778,0.26,108,1
2324,-0.243,0.698,0.27,108,1
2325,-0.268,0.689,0.269,108,1
2326,-0.284,0.737,0.286,108,1
2327,-0.306,0.802,0.317,108,1
2328,-0.336,0.896,0.327,108,1
2329,-0.362,1.018,0.321,108,1
2330,-0.359,1.155,0.307,108,1
2331,-0.34,1.311,0.294,108,1
2332,-0.335,1.36,0.288,108,1
2333,-0.333,1.294,0.25,108,1
2334,-0.325,1.233,0.185,108,1
2335,-0.327,1.15,0.137,108,1
2336,-0.323,1.017,0.129,108,1
2337,-0.3,0.885,0.147,108,1
2338,-0.283,0.787,0.157,108,1
2339,-0.274,0.733,0.142,109,1
2340,-0.256,0.724,0.113,109,1
2341,-0.234,0.733,0.098,109,1
2342,-0.217,0.746,0.093,109,1
2343,-0.221,0.809,0.084,109,1
2344,-0.236,0.935,0.096,109,1
2345,-0.248,1.106,0.11,109,1
2346,-0.25,1.276,0.102,109,1
2347,-0.218,1.303,0.113,109,1
2348,-0.161,1.238,0.149,109,1
2349,-0.128,1.196,0.164,109,1
2350,-0.13,1.114,0.168,109,1
2351,-0.154,0.974,0.207,109,1
2352,-0.189,0.828,0.25,109,1
2353,-0.221,0.724,0.266,109,1
2354,-0.244,0.688,0.275,109,1
2355,-0.256,0.723,0.286,109,1
2356,-0.26,0.786,0.305,109,1
2357,-0.267,0.852,0.321,109,1
2358,-0.278,0.94,0.319,109,1
2359,-0.29,1.065,0.293,109,1
2360,-0.308,1.242,0.267,109,1
2361,-0.332,1.343,0.274,109,1
2362,-0.329,1.293,0.259,109,1
2363,-0.301,1.248,0.194,109,1
2364,-0.28,1.22,0.143,109,1
2365,-0.264,1.132,0.123,109,1
2366,-0.25,1.01,0.123,109,1
2367,-0.242,0.89,0.125,109,1
2368,-0.233,0.796,0.124,109,1
2369,-0.214,0.738,0.127,109,1
2370,-0.182,0.714,0.133,109,1
2371,-0.154,0.72,0.132,109,1
2372,-0.159,0.772,0.123,109,1
2373,-0.187,0.869,0.123,109,1
2374,-0.214,1.013,0.136,109,1
2375,-0.232,1.207,0.14,109,1
2376,-0.239,1.322,0.147,109,1
2377,-0.23,1.287,0.184,109,1
2378,-0.212,1.228,0.219,109,1
2379,-0.197,1.166,0.225,109,1
2380,-0.178,1.039,0.222,109,1
2381,-0.185,0.881,0.233,109,1
2382,-0.217,0.743,0.245,109,1
2383,-0.246,0.656,0.245,109,1
2384,-0.272,0.648,0.248,109,1
2385,-0.285,0.703,0.26,109,1
2386,-0.292,0.782,0.276,109,1
2387,-0.304,0.887,0.298,109,1
2388,-0.315,1.013,0.313,109,1
2389,-0.314,1.174,0.307,108,1
2390,-0.31,1.338,0.318,108,1
2391,-0.299,1.357,0.332,108,1
2392,-0.286,1.29,0.287,108,1
2393,-0.292,1.243,0.223,108,1
2394,-0.299,1.154,0.191,108,1
2395,-0.279,1.022,0.177,108,1
2396,-0.253,0.886,0.161,108,1
2397,-0.24,0.782,0.142,108,1
2398,-0.228,0.723,0.129,108,1
2399,-0.212,0.709,0.131,108,1
2400,-0.201,0.736,0.144,108,1
2401,-0.189,0.801,0.147,108,1
2402,-0.173,0.902,0.126,108,1
2403,-0.168,1.022,0.106,108,1
2404,-0.191,1.145,0.096,108,1
2405,-0.235,1.234,0.094,108,1
2406,-0.265,1.221,0.118,108,1
2407,-0.244,1.165,0.153,108,1
2408,-0.19,1.14,0.154,108,1
2409,-0.148,1.065,0.147,108,1
2410,-0.155,0.915,0.174,108,1
2411,-0.2,0.777,0.203,108,1
2412,-0.247,0.706,0.21,108,1
2413,-0.28,0.703,0.213,108,1
2414,-0.303,0.755,0.238,108,1
2415,-0.325,0.833,0.281,108,1
2416,-0.341,0.929,0.315,108,1
2417,-0.345,1.051,0.336,108,1
2418,-0.325,1.18,0.343,108,1
2419,-0.298,1.313,0.354,108,1
2420,-0.294,1.356,0.371,108,1
2421,-0.298,1.274,0.323,108,1
2422,-0.298,1.191,0.227,108,1
2423,-0.293,1.123,0.165,108,1
2424,-0.268,1.041,0.156,108,1
2425,-0.232,0.944,0.167,108,1
2426,-0.203,0.834,0.162,108,1
2427,-0.182,0.754,0.14,108,1
2428,-0.163,0.717,0.13,108,1
2429,-0.149,0.687,0.151,107,1
2430,-0.145,0.681,0.169,107,1
2431,-0.154,0.741,0.163,107,1
2432,-0.17,0.873,0.152,107,1
2433,-0.187,1.051,0.143,107,1
2434,-0.218,1.207,0.138,107,1
2435,-0.271,1.259,0.187,107,1
2436,-0.292,1.222,0.278,107,1
2437,-0.235,1.204,0.3,107,1
2438,-0.136,1.167,0.253,107,1
2439,-0.075,1.031,0.227,107,1
2440,-0.097,0.862,0.229,107,1
2441,-0.167,0.722,0.222,107,1
2442,-0.242,0.645,0.212,107,1
2443,-0.291,0.649,0.218,107,1
2444,-0.305,0.701,0.252,107,1
2445,-0.314,0.77,0.285,107,1
2446,-0.334,0.89,0.291,107,1
2447,-0.353,1.051,0.284,107,1
2448,-0.353,1.236,0.276,107,1
2449,-0.35,1.393,0.291,106,1
2450,-0.341,1.371,0.303,106,1
2451,-0.322,1.266,0.255,106,1
2452,-0.319,1.19,0.192,106,1
2453,-0.328,1.086,0.169,106,1
2454,-0.309,0.955,0.169,106,1
2455,-0.273,0.818,0.157,106,1
2456,-0.257,0.723,0.136,106,1
2457,-0.251,0.698,0.122,106,1
2458,-0.248,0.729,0.131,106,1
2459,-0.244,0.787,0.153,106,1
2460,-0.225,0.856,0.154,106,1
2461,-0.193,0.943,0.134,106,1
2462,-0.164,1.034,0.116,106,1
2463,-0.162,1.123,0.102,106,1
2464,-0.197,1.175,0.11,106,1
2465,-0.216,1.151,0.152,106,1
2466,-0.173,1.145,0.166,106,1
2467,-0.108,1.165,0.14,106,1
2468,-0.075,1.102,0.147,106,1
2469,-0.089,0.955,0.196,106,1
2470,-0.131,0.803,0.238,106,1
2471,-0.172,0.699,0.251,106,1
2472,-0.203,0.667,0.252,106,1
2473,-0.229,0.7,0.261,106,1
2474,-0.256,0.769,0.286,106,1
2475,-0.29,0.877,0.314,106,1
2476,-0.322,1.01,0.337,106,1
2477,-0.333,1.144,0.339,106,1
2478,-0.333,1.307,0.334,106,1
2479,-0.339,1.378,0.341,106,1
2480,-0.331,1.336,0.306,106,1
2481,-0.315,1.304,0.23,106,1
2482,-0.31,1.233,0.176,106,1
2483,-0.294,1.098,0.163,106,1
2484,-0.268,0.948,0.166,106,1
2485,-0.249,0.823,0.154,106,1
2486,-0.236,0.745,0.134,106,1
2487,-0.225,0.711,0.125,106,1
2488,-0.218,0.716,0.126,106,1
2489,-0.212,0.76,0.126,107,1
2490,-0.206,0.837,0.112,107,1
2491,-0.205,0.933,0.094,107,1
2492,-0.219,1.051,0.09,107,1
2493,-0.257,1.182,0.108,107,1
2494,-0.283,1.241,0.163,107,1
2495,-0.244,1.217,0.216,107,1
2496,-0.15,1.176,0.201,107,1
2497,-0.09,1.092,0.173,107,1
2498,-0.109,0.946,0.187,107,1
2499,-0.176,0.797,0.218,106,1
2500,-0.24,0.694,0.247,106,1
2501,-0.277,0.673,0.264,106,1
2502,-0.301,0.733,0.282,106,1
2503,-0.353,0.816,0.31,106,1
2504,-0.418,0.884,0.325,106,1
2505,-0.442,0.959,0.311,106,1
2506,-0.431,1.04,0.31,106,1
2507,-0.393,1.13,0.355,106,1
2508,-0.331,1.208,0.34,106,1
2509,-0.362,1.175,0.242,106,1
2510,-0.481,1.131,0.17,106,1
2511,-0.558,1.16,0.134,106,1
2512,-0.55,1.162,0.108,106,1
2513,-0.448,1.114,0.104,106,1
2514,-0.296,1.015,0.116,106,1
2515,-0.173,0.887,0.128,106,1
2516,-0.134,0.779,0.127,106,1
2517,-0.161,0.707,0.119,106,1
2518,-0.199,0.666,0.118,106,1
2519,-0.216,0.682,0.122,106,1
2520,-0.232,0.773,0.138,106,1
2521,-0.247,0.895,0.165,106,1
2522,-0.247,1.066,0.161,106,1
2523,-0.25,1.248,0.145,106,1
2524,-0.253,1.284,0.177,106,1
2525,-0.232,1.241,0.219,106,1
2526,-0.197,1.2,0.236,106,1
2527,-0.168,1.09,0.247,106,1
2528,-0.165,0.923,0.263,106,1
2529,-0.194,0.766,0.268,106,1
2530,-0.221,0.668,0.248,106,1
2531,-0.248,0.652,0.232,106,1
2532,-0.292,0.696,0.256,106,1
2533,-0.332,0.757,0.306,106,1
2534,-0.341,0.833,0.339,106,1
2535,-0.321,0.946,0.338,106,1
2536,-0.291,1.07,0.316,106,1
2537,-0.281,1.215,0.289,106,1
2538,-0.301,1.341,0.287,106,1
2539,-0.316,1.343,0.287,106,1
2540,-0.307,1.288,0.243,106,1
2541,-0.305,1.227,0.186,106,1
2542,-0.301,1.117,0.146,106,1
2543,-0.275,0.972,0.132,106,1
2544,-0.25,0.833,0.133,106,1
2545,-0.244,0.749,0.13,106,1
2546,-0.243,0.72,0.125,106,1
2547,-0.241,0.723,0.129,106,1
2548,-0.235,0.745,0.143,106,1
2549,-0.226,0.796,0.151,105,1
2550,-0.217,0.889,0.144,105,1
2551,-0.221,1.018,0.141,105,1
2552,-0.242,1.168,0.136,105,1
2553,-0.266,1.262,0.138,105,1
2554,-0.254,1.227,0.17,105,1
2555,-0.204,1.164,0.196,105,1
2556,-0.171,1.118,0.197,105,1
2557,-0.171,1.012,0.196,105,1
2558,-0.193,0.861,0.213,105,1
2559,-0.227,0.726,0.231,105,1
2560,-0.257,0.656,0.234,105,1
2561,-0.281,0.676,0.24,105,1
2562,-0.3,0.763,0.262,105,1
2563,-0.308,0.859,0.299,105,1
2564,-0.299,0.955,0.334,105,1
2565,-0.283,1.059,0.344,105,1
2566,-0.271,1.169,0.333,105,1
2567,-0.287,1.298,0.34,105,1
2568,-0.327,1.348,0.364,105,1
2569,-0.328,1.291,0.332,105,1
2570,-0.298,1.24,0.246,105,1
2571,-0.283,1.185,0.182,105,1
2572,-0.275,1.081,0.158,105,1
2573,-0.261,0.949,0.15,105,1
2574,-0.242,0.823,0.141,105,1
2575,-0.226,0.738,0.128,105,1
2576,-0.213,0.715,0.112,105,1
2577,-0.205,0.73,0.108,105,1
2578,-0.202,0.756,0.112,105,1
2579,-0.204,0.82,0.1,105,1
2580,-0.207,0.92,0.094,105,1
2581,-0.217,1.032,0.113,105,1
2582,-0.24,1.151,0.139,105,1
2583,-0.259,1.202,0.178,105,1
2584,-0.248,1.185,0.218,105,1
2585,-0.207,1.187,0.224,105,1
2586,-0.166,1.156,0.214,105,1
2587,-0.146,1.038,0.224,105,1
2588,-0.16,0.887,0.253,105,1
2589,-0.2,0.761,0.264,105,1
2590,-0.247,0.692,0.254,105,1
2591,-0.298,0.698,0.249,105,1
2592,-0.337,0.761,0.269,105,1
2593,-0.358,0.841,0.306,105,1
2594,-0.364,0.944,0.335,105,1
2595,-0.349,1.06,0.345,105,1
2596,-0.312,1.178,0.332,105,1
2597,-0.294,1.286,0.339,105,1
2598,-0.307,1.284,0.349,105,1
2599,-0.306,1.23,0.293,105,1
2600,-0.295,1.214,0.213,105,1
2601,-0.294,1.16,0.163,105,1
2602,-0.285,1.05,0.146,105,1
2603,-0.268,0.929,0.146,105,1
2604,-0.253,0.837,0.14,105,1
2605,-0.236,0.789,0.126,105,1
2606,-0.211,0.77,0.116,105,1
2607,-0.19,0.763,0.119,105,1
2608,-0.186,0.778,0.119,105,1
2609,-0.197,0.841,0.113,105,1
2610,-0.208,0.922,0.138,105,1
2611,-0.217,1.038,0.16,105,1
2612,-0.23,1.197,0.147,105,1
2613,-0.233,1.253,0.167,105,1
2614,-0.205,1.214,0.216,105,1
2615,-0.166,1.176,0.235,105,1
2616,-0.146,1.092,0.229,105,1
2617,-0.156,0.959,0.235,105,1
2618,-0.195,0.825,0.25,105,1
2619,-0.231,0.73,0.253,104,1
2620,-0.257,0.705,0.252,104,1
2621,-0.279,0.747,0.264,104,1
2622,-0.303,0.806,0.29,104,1
2623,-0.32,0.871,0.306,104,1
2624,-0.328,0.968,0.3,104,1
2625,-0.334,1.08,0.285,104,1
2626,-0.348,1.228,0.284,104,1
2627,-0.364,1.319,0.302,104,1
2628,-0.355,1.286,0.283,104,1
2629,-0.327,1.259,0.211,104,1
2630,-0.306,1.234,0.151,104,1
2631,-0.281,1.147,0.129,104,1
2632,-0.258,1.028,0.128,104,1
2633,-0.248,0.915,0.123,104,1
2634,-0.24,0.833,0.1,104,1
2635,-0.229,0.784,0.07,104,1
2636,-0.224,0.764,0.06,104,1
2637,-0.213,0.756,0.079,104,1
2638,-0.203,0.776,0.099,104,1
2639,-0.206,0.854,0.111,104,1
2640,-0.215,0.981,0.128,104,1
2641,-0.238,1.133,0.141,104,1
2642,-0.28,1.21,0.147,104,1
2643,-0.289,1.165,0.221,104,1
2644,-0.253,1.155,0.205,104,1
2645,-0.199,1.069,0.192,104,1
2646,-0.163,0.938,0.207,104,1
2647,-0.183,0.823,0.22,104,1
2648,-0.236,0.753,0.219,104,1
2649,-0.296,0.736,0.218,105,1
2650,-0.335,0.759,0.242,105,1
2651,-0.34,0.809,0.282,105,1
2652,-0.335,0.897,0.309,105,1
2653,-0.328,1.007,0.319,105,1
2654,-0.305,1.129,0.317,105,1
2655,-0.3,1.261,0.322,105,1
2656,-0.329,1.302,0.322,105,1
2657,-0.344,1.281,0.279,105,1
2658,-0.333,1.269,0.218,105,1
2659,-0.306,1.209,0.18,105,1
2660,-0.267,1.088,0.163,105,1
2661,-0.239,0.948,0.151,105,1
2662,-0.229,0.839,0.13,105,1
2663,-0.227,0.778,0.103,105,1
2664,-0.218,0.756,0.094,105,1
2665,-0.209,0.746,0.104,105,1
2666,-0.208,0.755,0.11,105,1
2667,-0.203,0.823,0.108,105,1
2668,-0.196,0.944,0.116,105,1
2669,-0.199,1.085,0.12,105,1
2670,-0.222,1.211,0.126,105,1
2671,-0.248,1.237,0.18,105,1
2672,-0.253,1.214,0.254,105,1
2673,-0.229,1.204,0.28,105,1
2674,-0.176,1.124,0.26,105,1
2675,-0.132,0.974,0.243,105,1
2676,-0.15,0.82,0.235,105,1
2677,-0.211,0.713,0.216,105,1
2678,-0.273,0.674,0.201,105,1
2679,-0.322,0.693,0.226,105,1
2680,-0.342,0.732,0.281,105,1
2681,-0.346,0.806,0.316,105,1
2682,-0.356,0.964,0.323,105,1
2683,-0.358,1.132,0.346,105,1
2684,-0.33,1.276,0.376,105,1
2685,-0.293,1.363,0.398,105,1
2686,-0.268,1.321,0.378,105,1
2687,-0.267,1.253,0.294,105,1
2688,-0.3,1.19,0.21,105,1
2689,-0.328,1.091,0.183,105,1
2690,-0.302,0.974,0.194,105,1
2691,-0.252,0.855,0.184,105,1
2692,-0.22,0.761,0.149,105,1
2693,-0.207,0.717,0.121,105,1
2694,-0.196,0.713,0.119,105,1
2695,-0.188,0.716,0.139,105,1
2696,-0.193,0.745,0.166,105,1
2697,-0.205,0.826,0.202,105,1
2698,-0.192,0.956,0.223,105,1
2699,-0.163,1.148,0.198,105,1
2700,-0.177,1.277,0.162,105,1
2701,-0.235,1.232,0.2,105,1
2702,-0.273,1.166,0.27,105,1
2703,-0.273,1.142,0.274,105,1
2704,-0.216,1.052,0.25,105,1
2705,-0.144,0.902,0.252,105,1
2706,-0.151,0.76,0.265,105,1
2707,-0.218,0.676,0.27,105,1
2708,-0.289,0.666,0.293,105,1
2709,-0.333,0.702,0.343,105,1
2710,-0.355,0.76,0.377,105,1
2711,-0.366,0.862,0.375,105,1
2712,-0.369,1.001,0.358,105,1
2713,-0.359,1.17,0.333,105,1
2714,-0.342,1.342,0.314,105,1
2715,-0.321,1.396,0.286,105,1
2716,-0.294,1.35,0.208,105,1
2717,-0.291,1.283,0.12,105,1
2718,-0.313,1.175,0.085,105,1
2719,-0.32,1.026,0.104,105,1
2720,-0.297,0.86,0.134,105,1
2721,-0.267,0.724,0.146,105,1
2722,-0.242,0.648,0.133,105,1
2723,-0.218,0.629,0.114,105,1
2724,-0.201,0.658,0.113,105,1
2725,-0.197,0.742,0.119,105,1
2726,-0.198,0.875,0.109,105,1
2727,-0.201,1.033,0.1,105,1
2728,-0.207,1.211,0.092,105,1
2729,-0.225,1.342,0.08,105,1
2730,-0.24,1.315,0.117,105,1
2731,-0.216,1.236,0.181,105,1
2732,-0.155,1.187,0.201,105,1
2733,-0.091,1.078,0.2,105,1
2734,-0.085,0.902,0.222,105,1
2735,-0.144,0.74,0.246,105,1
2736,-0.212,0.645,0.246,105,1
2737,-0.259,0.625,0.243,105,1
2738,-0.287,0.672,0.258,105,1
2739,-0.312,0.748,0.298,105,1
2740,-0.338,0.849,0.333,105,1
2741,-0.348,0.992,0.342,105,1
2742,-0.319,1.122,0.334,105,1
2743,-0.275,1.247,0.323,105,1
2744,-0.267,1.331,0.331,105,1
2745,-0.283,1.283,0.311,105,1
2746,-0.294,1.225,0.233,105,1
2747,-0.317,1.194,0.165,105,1
2748,-0.325,1.102,0.149,105,1
2749,-0.291,0.96,0.159,105,1
2750,-0.255,0.823,0.16,105,1
2751,-0.237,0.744,0.163,105,1
2752,-0.227,0.725,0.166,105,1
2753,-0.227,0.735,0.166,105,1
2754,-0.231,0.75,0.168,105,1
2755,-0.235,0.788,0.155,105,1
2756,-0.243,0.875,0.135,105,1
2757,-0.258,1.003,0.142,105,1
2758,-0.276,1.151,0.172,105,1
2759,-0.288,1.245,0.195,104,1
2760,-0.274,1.207,0.22,104,1
2761,-0.22,1.142,0.225,104,1
2762,-0.172,1.114,0.191,104,1
2763,-0.17,1.034,0.177,104,1
2764,-0.196,0.904,0.202,104,1
2765,-0.231,0.772,0.222,104,1
2766,-0.26,0.671,0.217,104,1
2767,-0.281,0.632,0.211,104,1
2768,-0.293,0.681,0.226,104,1
2769,-0.303,0.771,0.264,104,1
2770,-0.313,0.875,0.306,104,1
2771,-0.312,1.014,0.33,104,1
2772,-0.292,1.166,0.328,104,1
2773,-0.28,1.318,0.332,104,1
2774,-0.298,1.361,0.348,104,1
2775,-0.311,1.289,0.318,104,1
2776,-0.307,1.227,0.257,104,1
2777,-0.305,1.159,0.22,104,1
2778,-0.283,1.063,0.207,104,1
2779,-0.245,0.945,0.192,104,1
2780,-0.226,0.829,0.161,104,1
2781,-0.219,0.75,0.125,104,1
2782,-0.21,0.701,0.095,104,1
2783,-0.206,0.678,0.086,104,1
2784,-0.215,0.705,0.095,104,1
2785,-0.229,0.806,0.104,104,1
2786,-0.224,0.954,0.112,104,1
2787,-0.216,1.114,0.111,104,1
2788,-0.229,1.265,0.103,104,1
2789,-0.259,1.294,0.145,105,1
2790,-0.267,1.213,0.23,105,1
2791,-0.238,1.164,0.266,105,1
2792,-0.193,1.109,0.248,105,1
2793,-0.151,0.982,0.23,105,1
2794,-0.157,0.835,0.237,105,1
2795,-0.199,0.721,0.246,105,1
2796,-0.238,0.662,0.245,105,1
2797,-0.277,0.675,0.259,105,1
2798,-0.307,0.728,0.303,105,1
2799,-0.307,0.787,0.347,105,1
2800,-0.285,0.869,0.352,105,1
2801,-0.269,0.981,0.339,105,1
2802,-0.276,1.166,0.309,105,1
2803,-0.312,1.37,0.282,105,1
2804,-0.337,1.406,0.271,105,1
2805,-0.318,1.325,0.236,105,1
2806,-0.302,1.247,0.193,105,1
2807,-0.302,1.145,0.166,105,1
2808,-0.278,1.015,0.151,105,1
2809,-0.242,0.868,0.148,105,1
2810,-0.219,0.743,0.147,105,1
2811,-0.206,0.673,0.141,105,1
2812,-0.203,0.665,0.148,105,1
2813,-0.206,0.701,0.17,105,1
2814,-0.205,0.756,0.185,105,1
2815,-0.202,0.831,0.186,105,1
2816,-0.206,0.942,0.183,105,1
2817,-0.222,1.117,0.18,105,1
2818,-0.255,1.278,0.166,105,1
2819,-0.29,1.268,0.19,105,1
2820,-0.274,1.174,0.232,105,1
2821,-0.214,1.121,0.208,105,1
2822,-0.164,1.066,0.156,105,1
2823,-0.139,0.965,0.156,105,1
2824,-0.154,0.835,0.193,105,1
2825,-0.197,0.73,0.221,105,1
2826,-0.228,0.677,0.237,105,1
2827,-0.242,0.686,0.259,105,1
2828,-0.248,0.732,0.289,105,1
2829,-0.261,0.797,0.32,106,1
2830,-0.286,0.906,0.35,106,1
2831,-0.301,1.044,0.359,106,1
2832,-0.302,1.239,0.333,106,1
2833,-0.3,1.394,0.333,106,1
2834,-0.288,1.375,0.328,106,1
2835,-0.262,1.34,0.245,106,1
2836,-0.251,1.322,0.161,106,1
2837,-0.259,1.221,0.13,106,1
2838,-0.261,1.058,0.146,106,1
2839,-0.239,0.861,0.174,106,1
2840,-0.196,0.684,0.179,106,1
2841,-0.157,0.58,0.157,106,1
2842,-0.14,0.556,0.133,106,1
2843,-0.148,0.604,0.126,106,1
2844,-0.166,0.714,0.114,106,1
2845,-0.189,0.863,0.097,106,1
2846,-0.22,1.031,0.118,106,1
2847,-0.259,1.205,0.16,106,1
2848,-0.302,1.308,0.208,106,1
2849,-0.312,1.266,0.274,106,1
2850,-0.27,1.201,0.31,106,1
2851,-0.188,1.173,0.292,106,1
2852,-0.098,1.081,0.27,106,1
2853,-0.067,0.927,0.264,106,1
2854,-0.124,0.773,0.255,106,1
2855,-0.227,0.666,0.243,106,1
2856,-0.309,0.627,0.243,106,1
2857,-0.331,0.655,0.264,106,1
2858,-0.318,0.723,0.295,106,1
2859,-0.323,0.829,0.324,106,1
2860,-0.353,0.984,0.346,106,1
2861,-0.358,1.125,0.343,106,1
2862,-0.315,1.259,0.329,106,1
2863,-0.275,1.316,0.333,106,1
2864,-0.277,1.266,0.312,106,1
2865,-0.306,1.248,0.239,106,1
2866,-0.322,1.253,0.176,106,1
2867,-0.297,1.204,0.151,106,1
2868,-0.25,1.079,0.151,106,1
2869,-0.217,0.927,0.146,106,1
2870,-0.205,0.832,0.113,106,1
2871,-0.201,0.798,0.092,106,1
2872,-0.203,0.75,0.111,106,1
2873,-0.197,0.666,0.157,106,1
2874,-0.177,0.625,0.189,106,1
2875,-0.167,0.697,0.191,106,1
2876,-0.183,0.866,0.174,106,1
2877,-0.21,1.088,0.143,106,1
2878,-0.26,1.27,0.152,106,1
2879,-0.299,1.318,0.224,106,1
2880,-0.277,1.304,0.266,106,1
2881,-0.217,1.268,0.244,106,1
2882,-0.142,1.149,0.233,106,1
2883,-0.115,0.976,0.247,106,1
2884,-0.165,0.82,0.251,106,1
2885,-0.238,0.712,0.24,106,1
2886,-0.301,0.661,0.236,106,1
2887,-0.336,0.667,0.266,106,1
2888,-0.345,0.708,0.312,106,1
2889,-0.35,0.793,0.327,106,1
2890,-0.346,0.941,0.322,106,1
2891,-0.317,1.095,0.312,106,1
2892,-0.287,1.274,0.301,106,1
2893,-0.294,1.367,0.303,106,1
2894,-0.312,1.322,0.282,106,1
2895,-0.318,1.281,0.222,106,1
2896,-0.324,1.23,0.184,106,1
2897,-0.303,1.121,0.195,106,1
2898,-0.256,0.971,0.219,106,1
2899,-0.223,0.835,0.223,106,1
2900,-0.208,0.744,0.194,106,1
2901,-0.19,0.695,0.156,106,1
2902,-0.171,0.666,0.135,106,1
2903,-0.172,0.668,0.122,106,1
2904,-0.196,0.741,0.109,106,1
2905,-0.216,0.859,0.108,106,1
2906,-0.219,1.022,0.111,106,1
2907,-0.23,1.233,0.114,106,1
2908,-0.249,1.334,0.166,106,1
2909,-0.219,1.29,0.248,106,1
2910,-0.139,1.221,0.272,106,1
2911,-0.066,1.123,0.241,106,1
2912,-0.057,0.973,0.227,106,1
2913,-0.118,0.828,0.24,106,1
2914,-0.193,0.733,0.245,106,1
2915,-0.245,0.691,0.245,106,1
2916,-0.275,0.696,0.256,106,1
2917,-0.294,0.739,0.267,106,1
2918,-0.32,0.809,0.282,106,1
2919,-0.364,1.027,0.302,106,1
2920,-0.364,1.15,0.289,106,1
2921,-0.368,1.276,0.294,106,1
2922,-0.375,1.301,0.286,106,1
2923,-0.363,1.278,0.233,106,1
2924,-0.341,1.255,0.179,106,1
2925,-0.314,1.189,0.15,106,1
2926,-0.275,1.08,0.133,106,1
2927,-0.243,0.968,0.121,106,1
2928,-0.233,0.877,0.108,106,1
2929,-0.234,0.819,0.093,105,1
2930,-0.224,0.786,0.089,105,1
2931,-0.203,0.763,0.095,105,1
2932,-0.193,0.751,0.094,105,1
2933,-0.208,0.781,0.095,105,1
2934,-0.226,0.875,0.105,105,1
2935,-0.235,1.033,0.114,105,1
2936,-0.255,1.167,0.145,105,1
2937,-0.277,1.178,0.223,105,1
2938,-0.265,1.18,0.276,105,1
2939,-0.215,1.216,0.237,105,1
2940,-0.154,1.163,0.187,105,1
2941,-0.134,1.009,0.203,105,1
2942,-0.175,0.83,0.242,105,1
2943,-0.246,0.701,0.266,105,1
2944,-0.318,0.661,0.282,105,1
2945,-0.385,0.69,0.276,105,1
2946,-0.451,0.746,0.239,105,1
2947,-0.506,0.832,0.194,105,1
2948,-0.528,0.941,0.17,105,1
2949,-0.507,1.096,0.156,105,1
2950,-0.483,1.272,0.17,105,1
2951,-0.453,1.328,0.192,105,1
2952,-0.404,1.286,0.153,105,1
2953,-0.376,1.224,0.096,105,1
2954,-0.369,1.105,0.09,105,1
2955,-0.343,0.945,0.121,105,1
2956,-0.3,0.796,0.146,105,1
2957,-0.266,0.696,0.153,105,1
2958,-0.24,0.664,0.15,105,1
2959,-0.225,0.689,0.149,105,1
2960,-0.226,0.738,0.157,105,1
2961,-0.234,0.814,0.149,105,1
2962,-0.241,0.931,0.127,105,1
2963,-0.244,1.059,0.117,105,1
2964,-0.242,1.184,0.105,105,1
2965,-0.249,1.252,0.107,105,1
2966,-0.236,1.192,0.142,105,1
2967,-0.172,1.13,0.144,105,1
2968,-0.111,1.116,0.106,105,1
2969,-0.1,1.043,0.108,105,1
2970,-0.135,0.915,0.155,105,1
2971,-0.179,0.786,0.194,105,1
2972,-0.205,0.697,0.21,105,1
2973,-0.227,0.687,0.215,105,1
2974,-0.258,0.751,0.232,105,1
2975,-0.283,0.823,0.266,105,1
2976,-0.289,0.893,0.298,105,1
2977,-0.283,0.995,0.31,105,1
2978,-0.274,1.117,0.294,105,1
2979,-0.28,1.27,0.289,105,1
2980,-0.304,1.346,0.298,105,1
2981,-0.316,1.303,0.259,105,1
2982,-0.313,1.243,0.195,105,1
2983,-0.306,1.16,0.166,105,1
2984,-0.282,1.043,0.162,105,1
2985,-0.25,0.916,0.152,105,1
2986,-0.228,0.811,0.136,105,1
2987,-0.216,0.75,0.119,105,1
2988,-0.209,0.731,0.108,105,1
2989,-0.207,0.739,0.115,105,1
2990,-0.208,0.76,0.126,105,1
2991,-0.21,0.806,0.122,105,1
2992,-0.218,0.881,0.116,105,1
2993,-0.236,0.993,0.121,105,1
2994,-0.259,1.132,0.128,105,1
2995,-0.272,1.214,0.148,105,1
2996,-0.259,1.237,0.17,105,1
2997,-0.234,1.247,0.17,105,1
2998,-0.226,1.198,0.162,105,1
2999,-0.226,1.063,0.18,105,1
3000,-0.234,0.909,0.21,105,1
3001,-0.261,0.775,0.218,105,1
3002,-0.299,0.681,0.231,105,1
3003,-0.322,0.665,0.253,105,1
3004,-0.342,0.72,0.263,105,1
3005,-0.369,0.825,0.285,105,1
3006,-0.364,0.965,0.309,105,1
3007,-0.324,1.096,0.315,105,1
3008,-0.285,1.244,0.306,105,1
3009,-0.277,1.344,0.302,105,1
3010,-0.287,1.333,0.269,105,1
3011,-0.296,1.306,0.188,105,1
3012,-0.311,1.248,0.124,105,1
3013,-0.306,1.125,0.105,105,1
3014,-0.277,0.98,0.102,105,1
3015,-0.258,0.847,0.095,105,1
3016,-0.249,0.747,0.088,105,1
3017,-0.235,0.687,0.074,105,1
3018,-0.22,0.666,0.062,105,1
3019,-0.219,0.682,0.068,105,1
3020,-0.23,0.743,0.085,105,1
3021,-0.239,0.849,0.107,105,1
3022,-0.244,1,0.136,105,1
3023,-0.248,1.181,0.143,105,1
3024,-0.263,1.3,0.138,105,1
3025,-0.274,1.295,0.183,105,1
3026,-0.257,1.256,0.235,105,1
3027,-0.225,1.197,0.236,105,1
3028,-0.187,1.058,0.218,105,1
3029,-0.179,0.883,0.217,105,1
3030,-0.208,0.741,0.223,105,1
3031,-0.245,0.656,0.227,105,1
3032,-0.279,0.64,0.248,105,1
3033,-0.298,0.692,0.289,105,1
3034,-0.3,0.774,0.324,105,1
3035,-0.291,0.886,0.328,105,1
3036,-0.282,1.019,0.314,105,1
3037,-0.275,1.161,0.288,105,1
3038,-0.291,1.301,0.293,105,1
3039,-0.32,1.325,0.315,105,1
3040,-0.312,1.267,0.264,105,1
3041,-0.283,1.239,0.184,105,1
3042,-0.264,1.181,0.148,105,1
3043,-0.242,1.071,0.142,105,1
3044,-0.199,0.945,0.139,105,1
3045,-0.131,0.836,0.134,105,1
3046,-0.151,0.778,0.102,105,1
3047,-0.266,0.751,0.036,105,1
3048,-0.321,0.727,-0.003,105,1
3049,-0.327,0.717,-0.009,105,1
3050,-0.375,0.75,-0.024,105,1
3051,-0.348,0.83,-0.008,105,1
3052,-0.215,0.968,0.076,105,1
3053,-0.138,1.175,0.164,105,1
3054,-0.158,1.337,0.221,105,1
3055,-0.204,1.375,0.244,105,1
3056,-0.212,1.325,0.22,105,1
3057,-0.17,1.214,0.197,105,1
3058,-0.128,1.059,0.207,105,1
3059,-0.144,0.906,0.223,105,1
3060,-0.203,0.773,0.23,105,1
3061,-0.269,0.673,0.236,105,1
3062,-0.3,0.638,0.256,105,1
3063,-0.286,0.67,0.282,105,1
3064,-0.265,0.758,0.297,105,1
3065,-0.251,0.893,0.298,105,1
3066,-0.247,1.062,0.282,105,1
3067,-0.267,1.252,0.284,105,1
3068,-0.292,1.312,0.331,105,1
3069,-0.276,1.234,0.345,105,1
3070,-0.226,1.199,0.301,105,1
3071,-0.161,1.175,0.253,105,1
3072,-0.094,1.08,0.229,105,1
3073,-0.051,0.952,0.233,105,1
3074,-0.056,0.854,0.24,105,1
3075,-0.071,0.807,0.237,105,1
3076,-0.057,0.784,0.232,105,1
3077,-0.05,0.763,0.238,105,1
3078,-0.078,0.759,0.247,105,1
3079,-0.111,0.799,0.261,105,1
3080,-0.098,0.883,0.293,105,1
3081,-0.054,1.023,0.309,105,1
3082,-0.051,1.176,0.289,105,1
3083,-0.102,1.206,0.269,105,1
3084,-0.131,1.139,0.257,105,1
3085,-0.128,1.092,0.253,105,1
3086,-0.143,1.019,0.272,105,1
3087,-0.194,0.906,0.315,105,1
3088,-0.333,0.814,0.312,105,1
3089,-0.474,0.805,0.302,105,1
3090,-0.507,0.855,0.331,105,1
3091,-0.693,0.72,0.378,105,1
3092,-0.882,0.37,0.468,105,1
3093,-0.823,0.22,0.545,105,1
3094,-0.688,0.396,0.522,105,1
3095,-0.658,0.749,0.356,105,1
3096,-0.692,1.143,0.184,105,1
3097,-0.639,1.331,0.05,105,1
3098,-0.629,1.323,-0.053,105,1
3099,-0.757,1.396,-0.063,105,1
3100,-0.842,1.557,0.063,105,1
3101,-0.858,1.616,0.353,105,1
3102,-0.75,1.415,0.546,105,1
3103,-0.491,0.948,0.633,105,1
3104,-0.237,0.37,0.764,105,1
3105,0.019,-0.085,0.777,105,1
3106,0.126,-0.328,0.676,105,1