Sample Count,Acceleration X (g),Acceleration Y (g),Acceleration Z (g),Heart Rate (bpm),Activity
0,-0.87,0.093,-0.591,60,4
1,-0.84,0.073,-0.549,60,4
2,-0.786,0.048,-0.449,60,4
3,-0.761,0.02,-0.311,60,4
4,-0.628,-0.02,-0.208,60,4
5,-0.173,0.033,-0.1,60,4
6,0.409,0.426,0.044,60,4
7,0.223,1.168,-0.238,60,4
8,-0.348,1.761,-0.717,60,4
9,-0.507,1.705,-0.646,60,4
10,-0.426,1.407,-0.334,60,4
11,-0.282,1.306,-0.244,60,4
12,-0.309,1.245,-0.315,60,4
13,-0.407,1.191,-0.373,60,4
14,-0.43,1.158,-0.346,60,4
15,-0.402,1.14,-0.292,60,4
16,-0.385,1.128,-0.258,60,4
17,-0.375,1.116,-0.246,60,4
18,-0.383,1.082,-0.21,60,4
19,-0.395,1.033,-0.169,60,4
20,-0.398,0.994,-0.138,60,4
21,-0.384,0.976,-0.115,60,4
22,-0.358,1.004,-0.124,60,4
23,-0.358,1.004,-0.124,60,4
24,-0.358,1.004,-0.124,60,4
25,-0.34,1.07,-0.143,60,4
26,-0.317,1.101,-0.146,60,4
27,-0.306,1.095,-0.122,60,4
28,-0.292,1.107,-0.105,60,4
29,-0.245,1.12,-0.12,60,4
30,-0.185,1.111,-0.14,60,4
31,-0.149,1.103,-0.142,60,4
32,-0.128,1.083,-0.15,60,4
33,-0.124,1.029,-0.149,60,4
34,-0.131,0.978,-0.124,60,4
35,-0.139,0.928,-0.095,60,4
36,-0.15,0.872,-0.064,60,4
37,-0.164,0.828,-0.026,60,4
38,-0.187,0.823,0.018,60,4
39,-0.211,0.861,0.056,60,4
40,-0.23,0.911,0.101,60,4
41,-0.239,0.959,0.167,60,4
42,-0.244,1.028,0.22,60,4
43,-0.257,1.116,0.208,60,4
44,-0.264,1.142,0.136,60,4
45,-0.255,1.094,0.065,60,4
46,-0.241,1.041,0.009,60,4
47,-0.236,1.015,-0.041,60,4
48,-0.241,1.002,-0.073,60,4
49,-0.245,0.973,-0.091,60,4
50,-0.245,0.93,-0.101,60,4
51,-0.246,0.907,-0.104,60,4
52,-0.251,0.92,-0.111,60,4
53,-0.257,0.958,-0.116,60,4
54,-0.259,1.012,-0.082,60,4
55,-0.234,1.05,0.008,60,4
56,-0.204,1.047,0.084,60,4
57,-0.201,1.023,0.087,60,4
58,-0.206,1,0.045,60,4
59,-0.209,0.986,-0.01,59,4
60,-0.216,0.974,-0.063,59,4
61,-0.232,0.966,-0.094,59,4
62,-0.242,0.964,-0.11,59,4
63,-0.242,0.968,-0.122,59,4
64,-0.239,0.974,-0.125,59,4
65,-0.24,0.976,-0.118,59,4
66,-0.243,0.98,-0.105,59,4
67,-0.244,0.991,-0.085,59,4
68,-0.241,1.002,-0.061,59,4
69,-0.237,1.005,-0.045,59,4
70,-0.227,1.002,-0.051,59,4
71,-0.219,0.998,-0.07,59,4
72,-0.219,0.993,-0.09,59,4
73,-0.222,0.99,-0.105,59,4
74,-0.227,0.987,-0.113,59,4
75,-0.231,0.983,-0.118,59,4
76,-0.232,0.981,-0.124,59,4
77,-0.234,0.981,-0.126,59,4
78,-0.236,0.982,-0.125,59,4
79,-0.237,0.986,-0.122,59,4
80,-0.236,0.989,-0.116,59,4
81,-0.231,0.991,-0.108,59,4
82,-0.229,0.992,-0.102,59,4
83,-0.235,0.992,-0.101,59,4
84,-0.239,0.986,-0.101,59,4
85,-0.241,0.983,-0.104,59,4
86,-0.243,0.983,-0.109,59,4
87,-0.245,0.983,-0.115,59,4
88,-0.244,0.984,-0.121,59,4
89,-0.24,0.982,-0.124,59,4
90,-0.233,0.977,-0.124,59,4
91,-0.223,0.978,-0.125,59,4
92,-0.217,0.979,-0.126,59,4
93,-0.21,0.978,-0.132,59,4
94,-0.202,0.977,-0.145,59,4
95,-0.197,0.976,-0.154,59,4
96,-0.191,0.978,-0.155,59,4
97,-0.19,0.982,-0.147,59,4
98,-0.194,0.985,-0.139,59,4
99,-0.196,0.989,-0.132,59,4
100,-0.196,0.992,-0.122,59,4
101,-0.198,0.992,-0.111,59,4
102,-0.204,0.99,-0.103,59,4
103,-0.215,0.989,-0.103,59,4
104,-0.226,0.986,-0.108,59,4
105,-0.231,0.984,-0.114,59,4
106,-0.235,0.98,-0.12,59,4
107,-0.24,0.98,-0.123,59,4
108,-0.244,0.983,-0.125,59,4
109,-0.246,0.985,-0.125,59,4
110,-0.248,0.986,-0.123,59,4
111,-0.249,0.986,-0.119,59,4
112,-0.249,0.986,-0.116,59,4
113,-0.246,0.986,-0.112,59,4
114,-0.239,0.987,-0.108,59,4
115,-0.228,0.988,-0.109,59,4
116,-0.219,0.988,-0.111,59,4
117,-0.215,0.988,-0.116,59,4
118,-0.212,0.986,-0.121,59,4
119,-0.21,0.982,-0.123,59,4
120,-0.207,0.98,-0.125,59,4
121,-0.204,0.981,-0.125,59,4
122,-0.204,0.983,-0.125,59,4
123,-0.207,0.985,-0.121,59,4
124,-0.211,0.985,-0.112,59,4
125,-0.218,0.987,-0.102,59,4
126,-0.227,0.99,-0.1,59,4
127,-0.233,0.989,-0.102,59,4
128,-0.236,0.987,-0.105,59,4
129,-0.235,0.981,-0.111,59,4
130,-0.236,0.975,-0.115,59,4
131,-0.237,0.976,-0.117,59,4
132,-0.238,0.981,-0.118,59,4
133,-0.238,0.985,-0.118,59,4
134,-0.238,0.987,-0.117,59,4
135,-0.234,0.988,-0.114,59,4
136,-0.229,0.988,-0.11,59,4
137,-0.227,0.987,-0.106,59,4
138,-0.226,0.986,-0.105,59,4
139,-0.227,0.987,-0.108,59,4
140,-0.229,0.989,-0.111,59,4
141,-0.23,0.988,-0.114,59,4
142,-0.23,0.983,-0.114,59,4
143,-0.228,0.979,-0.113,59,4
144,-0.218,0.981,-0.12,59,4
145,-0.213,0.985,-0.125,59,4
146,-0.221,0.992,-0.123,59,4
147,-0.225,0.996,-0.117,59,4
148,-0.223,0.994,-0.108,59,4
149,-0.216,0.993,-0.097,60,4
150,-0.208,0.993,-0.09,60,4
151,-0.197,0.992,-0.093,60,4
152,-0.187,0.991,-0.101,60,4
153,-0.189,0.989,-0.107,60,4
154,-0.199,0.98,-0.106,60,4
155,-0.213,0.971,-0.101,60,4
156,-0.227,0.969,-0.091,60,4
157,-0.237,0.973,-0.085,60,4
158,-0.243,0.981,-0.087,60,4
159,-0.249,0.987,-0.088,60,4
160,-0.25,0.988,-0.083,60,4
161,-0.245,0.985,-0.076,60,4
162,-0.235,0.982,-0.074,60,4
163,-0.231,0.979,-0.073,60,4
164,-0.235,0.978,-0.075,60,4
165,-0.241,0.979,-0.081,60,4
166,-0.246,0.979,-0.078,60,4
167,-0.248,0.976,-0.074,60,4
168,-0.246,0.978,-0.074,60,4
169,-0.246,0.98,-0.076,61,4
170,-0.245,0.982,-0.082,61,4
171,-0.245,0.986,-0.084,61,4
172,-0.246,0.986,-0.081,61,4
173,-0.247,0.986,-0.08,61,4
174,-0.247,0.987,-0.08,61,4
175,-0.246,0.987,-0.082,61,4
176,-0.246,0.989,-0.084,61,4
177,-0.247,0.989,-0.085,61,4
178,-0.247,0.985,-0.083,61,4
179,-0.243,0.983,-0.081,61,4
180,-0.241,0.984,-0.081,61,4
181,-0.245,0.985,-0.08,61,4
182,-0.248,0.986,-0.08,61,4
183,-0.247,0.987,-0.081,61,4
184,-0.239,0.986,-0.081,61,4
185,-0.234,0.985,-0.078,61,4
186,-0.237,0.985,-0.074,61,4
187,-0.242,0.984,-0.074,61,4
188,-0.246,0.985,-0.074,61,4
189,-0.245,0.985,-0.074,61,4
190,-0.242,0.981,-0.072,61,4
191,-0.238,0.981,-0.067,61,4
192,-0.239,0.985,-0.063,61,4
193,-0.246,0.982,-0.061,61,4
194,-0.248,0.982,-0.064,61,4
195,-0.247,0.987,-0.066,61,4
196,-0.246,0.989,-0.061,61,4
197,-0.245,0.989,-0.055,61,4
198,-0.242,0.989,-0.055,61,4
199,-0.238,0.986,-0.059,61,4
200,-0.233,0.983,-0.061,61,4
201,-0.228,0.984,-0.061,61,4
202,-0.227,0.985,-0.059,61,4
203,-0.229,0.984,-0.058,61,4
204,-0.233,0.985,-0.059,61,4
205,-0.239,0.982,-0.06,61,4
206,-0.235,0.973,-0.071,61,4
207,-0.219,0.973,-0.089,61,4
208,-0.201,0.995,-0.083,61,4
209,-0.2,1.017,-0.05,61,4
210,-0.25,1.014,-0.024,61,4
211,-0.297,0.996,-0.04,61,4
212,-0.286,0.979,-0.073,61,4
213,-0.249,0.972,-0.09,61,4
214,-0.214,0.968,-0.077,61,4
215,-0.194,0.963,-0.049,61,4
216,-0.196,0.965,-0.039,61,4
217,-0.212,0.97,-0.05,61,4
218,-0.22,0.974,-0.072,61,4
219,-0.217,0.976,-0.083,61,4
220,-0.214,0.98,-0.079,61,4
221,-0.215,0.984,-0.07,61,4
222,-0.224,0.987,-0.066,61,4
223,-0.234,0.988,-0.069,61,4
224,-0.238,0.992,-0.079,61,4
225,-0.249,1.001,-0.085,61,4
226,-0.26,1.003,-0.081,61,4
227,-0.256,0.994,-0.076,61,4
228,-0.246,0.989,-0.081,61,4
229,-0.243,0.989,-0.09,62,4
230,-0.247,0.991,-0.092,62,4
231,-0.245,1,-0.088,62,4
232,-0.232,1.008,-0.092,62,4
233,-0.229,1,-0.075,62,4
234,-0.238,0.986,-0.046,62,4
235,-0.243,0.982,-0.045,62,4
236,-0.249,0.982,-0.063,62,4
237,-0.243,0.982,-0.086,62,4
238,-0.225,0.975,-0.097,62,4
239,-0.21,0.963,-0.092,62,4
240,-0.196,0.956,-0.08,62,4
241,-0.182,0.962,-0.071,62,4
242,-0.174,0.976,-0.067,62,4
243,-0.17,0.985,-0.063,62,4
244,-0.161,0.988,-0.06,62,4
245,-0.164,0.989,-0.059,62,4
246,-0.18,0.99,-0.059,62,4
247,-0.191,0.99,-0.062,62,4
248,-0.198,0.991,-0.065,62,4
249,-0.209,0.994,-0.065,62,4
250,-0.22,0.995,-0.062,62,4
251,-0.229,0.993,-0.059,62,4
252,-0.23,0.989,-0.061,62,4
253,-0.225,0.986,-0.066,62,4
254,-0.224,0.986,-0.07,62,4
255,-0.229,0.988,-0.07,62,4
256,-0.236,0.989,-0.066,62,4
257,-0.24,0.988,-0.064,62,4
258,-0.242,0.985,-0.067,62,4
259,-0.239,0.984,-0.072,62,4
260,-0.231,0.986,-0.075,62,4
261,-0.227,0.988,-0.071,62,4
262,-0.231,0.989,-0.063,62,4
263,-0.24,0.986,-0.058,62,4
264,-0.243,0.983,-0.06,62,4
265,-0.24,0.983,-0.069,62,4
266,-0.237,0.986,-0.074,62,4
267,-0.236,0.989,-0.071,62,4
268,-0.237,0.989,-0.064,62,4
269,-0.239,0.987,-0.059,62,4
270,-0.242,0.983,-0.061,62,4
271,-0.243,0.981,-0.067,62,4
272,-0.241,0.983,-0.073,62,4
273,-0.239,0.986,-0.072,62,4
274,-0.24,0.988,-0.063,62,4
275,-0.244,0.988,-0.058,62,4
276,-0.248,0.987,-0.059,62,4
277,-0.239,0.979,-0.07,62,4
278,-0.222,0.975,-0.083,62,4
279,-0.213,0.983,-0.082,63,4
280,-0.221,0.989,-0.068,63,4
281,-0.237,0.989,-0.057,63,4
282,-0.246,0.988,-0.062,63,4
283,-0.247,0.985,-0.076,63,4
284,-0.244,0.984,-0.082,63,4
285,-0.238,0.985,-0.074,63,4
286,-0.234,0.987,-0.064,63,4
287,-0.235,0.986,-0.062,63,4
288,-0.242,0.983,-0.066,63,4
289,-0.247,0.981,-0.068,63,4
290,-0.249,0.982,-0.066,63,4
291,-0.25,0.984,-0.063,63,4
292,-0.249,0.986,-0.061,63,4
293,-0.248,0.988,-0.059,63,4
294,-0.247,0.986,-0.055,63,4
295,-0.245,0.981,-0.052,63,4
296,-0.241,0.98,-0.051,63,4
297,-0.235,0.986,-0.053,63,4
298,-0.226,0.992,-0.053,63,4
299,-0.217,0.996,-0.046,63,4
300,-0.205,0.989,-0.039,63,4
301,-0.176,0.981,-0.043,63,4
302,-0.156,0.972,-0.061,63,4
303,-0.183,0.953,-0.075,63,4
304,-0.249,0.938,-0.076,63,4
305,-0.321,0.943,-0.073,63,4
306,-0.357,0.963,-0.079,63,4
307,-0.354,0.984,-0.089,63,4
308,-0.337,0.996,-0.096,63,4
309,-0.302,0.991,-0.096,63,4
310,-0.26,0.978,-0.084,63,4
311,-0.225,0.974,-0.074,63,4
312,-0.202,0.979,-0.071,63,4
313,-0.203,0.985,-0.069,63,4
314,-0.224,0.991,-0.068,63,4
315,-0.239,0.991,-0.07,63,4
316,-0.242,0.986,-0.08,63,4
317,-0.239,0.983,-0.089,63,4
318,-0.235,0.976,-0.088,63,4
319,-0.228,0.97,-0.08,64,4
320,-0.22,0.972,-0.074,64,4
321,-0.215,0.979,-0.079,64,4
322,-0.22,0.984,-0.086,64,4
323,-0.24,0.986,-0.085,64,4
324,-0.277,0.987,-0.082,64,4
325,-0.303,0.984,-0.09,64,4
326,-0.293,0.981,-0.107,64,4
327,-0.266,0.98,-0.114,64,4
328,-0.242,0.979,-0.103,64,4
329,-0.229,0.983,-0.083,64,4
330,-0.229,0.99,-0.075,64,4
331,-0.237,0.99,-0.083,64,4
332,-0.243,0.985,-0.095,64,4
333,-0.246,0.979,-0.097,64,4
334,-0.246,0.975,-0.087,64,4
335,-0.243,0.978,-0.078,64,4
336,-0.238,0.982,-0.078,64,4
337,-0.234,0.986,-0.081,64,4
338,-0.231,0.986,-0.08,64,4
339,-0.228,0.985,-0.075,64,4
340,-0.23,0.986,-0.073,64,4
341,-0.237,0.988,-0.081,64,4
342,-0.241,0.989,-0.088,64,4
343,-0.238,0.989,-0.085,64,4
344,-0.233,0.99,-0.08,64,4
345,-0.229,0.987,-0.078,64,4
346,-0.221,0.983,-0.08,64,4
347,-0.213,0.981,-0.08,64,4
348,-0.206,0.985,-0.086,64,4
349,-0.205,0.989,-0.086,65,4
350,-0.217,0.989,-0.068,65,4
351,-0.232,0.985,-0.056,65,4
352,-0.241,0.982,-0.062,65,4
353,-0.245,0.981,-0.075,65,4
354,-0.243,0.983,-0.081,65,4
355,-0.237,0.986,-0.076,65,4
356,-0.231,0.987,-0.069,65,4
357,-0.231,0.985,-0.066,65,4
358,-0.229,0.982,-0.071,65,4
359,-0.219,0.98,-0.081,65,4
360,-0.213,0.981,-0.085,65,4
361,-0.214,0.985,-0.082,65,4
362,-0.223,0.989,-0.076,65,4
363,-0.229,0.99,-0.075,65,4
364,-0.226,0.99,-0.08,65,4
365,-0.226,0.99,-0.085,65,4
366,-0.228,0.99,-0.087,65,4
367,-0.23,0.99,-0.087,65,4
368,-0.229,0.989,-0.086,65,4
369,-0.227,0.987,-0.085,65,4
370,-0.228,0.987,-0.086,65,4
371,-0.231,0.988,-0.086,65,4
372,-0.234,0.988,-0.084,65,4
373,-0.233,0.988,-0.085,65,4
374,-0.23,0.987,-0.085,65,4
375,-0.229,0.985,-0.082,65,4
376,-0.23,0.986,-0.081,65,4
377,-0.234,0.987,-0.083,65,4
378,-0.237,0.988,-0.085,65,4
379,-0.237,0.988,-0.087,66,4
380,-0.235,0.988,-0.086,66,4
381,-0.232,0.986,-0.085,66,4
382,-0.233,0.985,-0.084,66,4
383,-0.235,0.986,-0.086,66,4
384,-0.235,0.986,-0.087,66,4
385,-0.235,0.986,-0.087,66,4
386,-0.236,0.986,-0.086,66,4
387,-0.237,0.986,-0.084,66,4
388,-0.235,0.986,-0.085,66,4
389,-0.236,0.986,-0.085,66,4
390,-0.238,0.987,-0.088,66,4
391,-0.236,0.987,-0.09,66,4
392,-0.23,0.987,-0.089,66,4
393,-0.23,0.986,-0.086,66,4
394,-0.236,0.986,-0.086,66,4
395,-0.237,0.986,-0.09,66,4
396,-0.235,0.987,-0.091,66,4
397,-0.233,0.987,-0.09,66,4
398,-0.233,0.987,-0.089,66,4
399,-0.232,0.987,-0.087,66,4
400,-0.23,0.986,-0.087,66,4
401,-0.232,0.986,-0.087,66,4
402,-0.237,0.988,-0.09,66,4
403,-0.239,0.988,-0.093,66,4
404,-0.236,0.987,-0.09,66,4
405,-0.232,0.985,-0.088,66,4
406,-0.232,0.985,-0.091,66,4
407,-0.234,0.986,-0.093,66,4
408,-0.238,0.985,-0.088,66,4
409,-0.242,0.985,-0.084,66,4
410,-0.244,0.985,-0.087,66,4
411,-0.241,0.983,-0.088,66,4
412,-0.237,0.981,-0.087,66,4
413,-0.237,0.982,-0.083,66,4
414,-0.242,0.985,-0.084,66,4
415,-0.246,0.986,-0.089,66,4
416,-0.247,0.984,-0.093,66,4
417,-0.245,0.984,-0.092,66,4
418,-0.245,0.983,-0.085,66,4
419,-0.248,0.981,-0.083,67,4
420,-0.248,0.982,-0.086,67,4
421,-0.248,0.984,-0.087,67,4
422,-0.249,0.986,-0.089,67,4
423,-0.248,0.985,-0.087,67,4
424,-0.243,0.983,-0.086,67,4
425,-0.242,0.984,-0.087,67,4
426,-0.244,0.985,-0.088,67,4
427,-0.245,0.984,-0.089,67,4
428,-0.242,0.984,-0.089,67,4
429,-0.239,0.985,-0.085,67,4
430,-0.241,0.984,-0.083,67,4
431,-0.25,0.982,-0.085,67,4
432,-0.255,0.978,-0.086,67,4
433,-0.257,0.978,-0.083,67,4
434,-0.254,0.984,-0.079,67,4
435,-0.249,0.986,-0.08,67,4
436,-0.248,0.982,-0.083,67,4
437,-0.254,0.976,-0.087,67,4
438,-0.265,0.975,-0.088,67,4
439,-0.268,0.978,-0.085,67,4
440,-0.257,0.982,-0.082,67,4
441,-0.243,0.983,-0.081,67,4
442,-0.242,0.981,-0.075,67,4
443,-0.255,0.98,-0.07,67,4
444,-0.27,0.98,-0.071,67,4
445,-0.272,0.981,-0.073,67,4
446,-0.263,0.979,-0.073,67,4
447,-0.255,0.978,-0.069,67,4
448,-0.249,0.979,-0.066,67,4
449,-0.245,0.982,-0.067,67,4
450,-0.246,0.983,-0.068,67,4
451,-0.248,0.983,-0.07,67,4
452,-0.248,0.985,-0.07,67,4
453,-0.245,0.987,-0.068,67,4
454,-0.24,0.985,-0.067,67,4
455,-0.236,0.983,-0.068,67,4
456,-0.234,0.983,-0.071,67,4
457,-0.235,0.983,-0.073,67,4
458,-0.236,0.983,-0.075,67,4
459,-0.238,0.982,-0.074,68,4
460,-0.238,0.978,-0.071,68,4
461,-0.236,0.978,-0.071,68,4
462,-0.24,0.982,-0.072,68,4
463,-0.251,0.987,-0.076,68,4
464,-0.26,0.988,-0.083,68,4
465,-0.257,0.987,-0.091,68,4
466,-0.244,0.985,-0.099,68,4
467,-0.237,0.986,-0.102,68,4
468,-0.238,0.986,-0.1,68,4
469,-0.238,0.986,-0.094,68,4
470,-0.237,0.986,-0.091,68,4
471,-0.238,0.986,-0.089,68,4
472,-0.24,0.982,-0.088,68,4
473,-0.239,0.982,-0.091,68,4
474,-0.239,0.985,-0.092,68,4
475,-0.242,0.986,-0.093,68,4
476,-0.241,0.987,-0.098,68,4
477,-0.235,0.989,-0.103,68,4
478,-0.231,0.989,-0.103,68,4
479,-0.231,0.988,-0.097,68,4
480,-0.233,0.984,-0.095,68,4
481,-0.235,0.983,-0.097,68,4
482,-0.233,0.986,-0.102,68,4
483,-0.232,0.988,-0.107,68,4
484,-0.231,0.988,-0.111,68,4
485,-0.227,0.987,-0.115,68,4
486,-0.219,0.988,-0.118,68,4
487,-0.212,0.986,-0.116,68,4
488,-0.209,0.982,-0.108,68,4
489,-0.209,0.983,-0.099,68,4
490,-0.216,0.987,-0.092,68,4
491,-0.23,0.989,-0.089,68,4
492,-0.247,1.003,-0.078,68,4
493,-0.257,1.013,-0.065,68,4
494,-0.238,0.999,-0.064,68,4
495,-0.212,0.979,-0.068,68,4
496,-0.214,0.962,-0.078,68,4
497,-0.227,0.95,-0.086,68,4
498,-0.235,0.953,-0.085,68,4
499,-0.244,0.969,-0.077,68,4
500,-0.267,0.989,-0.063,68,4
501,-0.288,0.995,-0.046,68,4
502,-0.285,0.986,-0.03,68,4
503,-0.265,0.973,-0.026,68,4
504,-0.251,0.967,-0.029,68,4
505,-0.247,0.963,-0.028,68,4
506,-0.251,0.962,-0.026,68,4
507,-0.258,0.966,-0.026,68,4
508,-0.258,0.969,-0.028,68,4
509,-0.252,0.969,-0.029,68,4
510,-0.248,0.969,-0.033,68,4
511,-0.246,0.976,-0.046,68,4
512,-0.263,0.984,-0.056,68,4
513,-0.279,0.985,-0.061,68,4
514,-0.285,0.98,-0.068,68,4
515,-0.287,0.961,-0.068,68,4
516,-0.281,0.946,-0.071,68,4
517,-0.288,0.952,-0.085,68,4
518,-0.29,0.96,-0.092,68,4
519,-0.282,0.956,-0.092,68,4
520,-0.285,0.948,-0.094,68,4
521,-0.284,0.95,-0.097,68,4
522,-0.283,0.958,-0.101,68,4
523,-0.281,0.968,-0.107,68,4
524,-0.284,0.992,-0.118,68,4
525,-0.287,1.015,-0.141,68,4
526,-0.282,1.02,-0.173,68,4
527,-0.281,1.011,-0.196,68,4
528,-0.28,1,-0.211,68,4
529,-0.271,0.993,-0.218,67,4
530,-0.262,0.992,-0.214,67,4
531,-0.254,0.995,-0.207,67,4
532,-0.248,0.991,-0.195,67,4
533,-0.246,0.973,-0.168,67,4
534,-0.246,0.952,-0.135,67,4
535,-0.247,0.953,-0.114,67,4
536,-0.253,0.976,-0.093,67,4
537,-0.274,1.004,-0.055,67,4
538,-0.289,1.026,-0.016,67,4
539,-0.298,1.021,0.01,67,4
540,-0.305,1.006,0.035,67,4
541,-0.308,0.998,0.032,67,4
542,-0.32,0.979,0.005,67,4
543,-0.343,0.957,-0.015,67,4
544,-0.349,0.934,-0.039,67,4
545,-0.354,0.907,-0.05,67,4
546,-0.363,0.899,-0.046,67,4
547,-0.358,0.902,-0.034,67,4
548,-0.334,0.9,-0.026,67,4
549,-0.287,0.9,-0.037,67,4
550,-0.239,0.904,-0.054,67,4
551,-0.192,0.917,-0.051,67,4
552,-0.157,0.934,-0.019,67,4
553,-0.15,0.954,0.02,67,4
554,-0.159,0.981,0.059,67,4
555,-0.166,1,0.084,67,4
556,-0.18,1.005,0.1,67,4
557,-0.208,1.003,0.114,67,4
558,-0.225,1.007,0.131,67,4
559,-0.229,1.007,0.13,67,4
560,-0.235,1.009,0.111,67,4
561,-0.238,1.011,0.09,67,4
562,-0.228,0.991,0.07,67,4
563,-0.201,0.966,0.056,67,4
564,-0.15,0.954,0.044,67,4
565,-0.099,0.96,0.043,67,4
566,-0.064,0.981,0.054,67,4
567,-0.043,1.006,0.065,67,4
568,-0.049,1.014,0.064,67,4
569,-0.056,0.981,0.046,67,4
570,-0.064,0.947,0.015,67,4
571,-0.109,0.95,-0.015,67,4
572,-0.172,0.969,-0.023,67,4
573,-0.213,0.991,-0.017,67,4
574,-0.232,1.012,-0.018,67,4
575,-0.244,1.017,-0.034,67,4
576,-0.265,1.02,-0.049,67,4
577,-0.272,1.058,-0.059,67,4
578,-0.258,1.106,-0.098,67,4
579,-0.25,1.125,-0.143,67,4
580,-0.232,1.112,-0.148,67,4
581,-0.199,1.072,-0.135,67,4
582,-0.186,1.03,-0.124,67,4
583,-0.186,0.995,-0.11,67,4
584,-0.173,0.969,-0.105,67,4
585,-0.152,0.967,-0.12,67,4
586,-0.13,0.965,-0.147,67,4
587,-0.121,0.965,-0.171,67,4
588,-0.138,0.97,-0.175,67,4
589,-0.162,0.965,-0.159,67,4
590,-0.16,0.968,-0.147,67,4
591,-0.149,0.99,-0.145,67,4
592,-0.152,0.995,-0.14,67,4
593,-0.145,0.983,-0.129,67,4
594,-0.151,0.978,-0.116,67,4
595,-0.172,0.981,-0.104,67,4
596,-0.176,0.987,-0.101,67,4
597,-0.182,1.004,-0.098,67,4
598,-0.195,1.026,-0.08,67,4
599,-0.201,1.023,-0.048,67,4
600,-0.203,1.009,-0.02,67,4
601,-0.208,1.001,0.009,67,4
602,-0.214,0.995,0.035,67,4
603,-0.219,0.996,0.058,67,4
604,-0.224,1.002,0.088,67,4
605,-0.208,1.015,0.103,67,4
606,-0.17,1.022,0.084,67,4
607,-0.141,1.013,0.039,67,4
608,-0.14,0.993,-0.01,67,4
609,-0.152,0.981,-0.056,67,4
610,-0.156,0.989,-0.084,67,4
611,-0.17,0.997,-0.077,67,4
612,-0.2,0.968,-0.056,67,4
613,-0.226,0.91,-0.053,67,4
614,-0.271,0.896,-0.069,67,4
615,-0.321,0.947,-0.095,67,4
616,-0.345,1.011,-0.113,67,4
617,-0.353,1.029,-0.104,67,4
618,-0.337,0.995,-0.083,67,4
619,-0.299,0.958,-0.071,67,4
620,-0.254,0.951,-0.07,67,4
621,-0.221,0.97,-0.059,67,4
622,-0.19,0.994,-0.038,67,4
623,-0.161,0.999,-0.005,67,4
624,-0.16,0.983,0.039,67,4
625,-0.163,0.959,0.041,67,4
626,-0.157,0.95,-0.006,67,4
627,-0.168,0.967,-0.06,67,4
628,-0.197,1,-0.102,67,4
629,-0.228,1.039,-0.146,67,4
630,-0.315,1.044,-0.208,67,4
631,-0.351,1.027,-0.212,67,4
632,-0.333,1.009,-0.221,67,4
633,-0.287,0.992,-0.228,67,4
634,-0.264,0.972,-0.23,67,4
635,-0.27,0.958,-0.224,67,4
636,-0.28,0.962,-0.214,67,4
637,-0.277,0.983,-0.212,67,4
638,-0.264,1.009,-0.212,67,4
639,-0.253,1.02,-0.205,69,4
640,-0.252,1.014,-0.183,69,4
641,-0.253,1.006,-0.153,69,4
642,-0.247,0.997,-0.126,69,4
643,-0.239,0.993,-0.106,69,4
644,-0.224,1.019,-0.105,69,4
645,-0.191,1.04,-0.11,69,4
646,-0.172,1.029,-0.111,69,4
647,-0.196,1.004,-0.096,69,4
648,-0.219,0.982,-0.078,69,4
649,-0.202,0.981,-0.072,70,4
650,-0.167,0.986,-0.072,70,4
651,-0.145,0.98,-0.074,70,4
652,-0.145,0.969,-0.08,70,4
653,-0.162,0.967,-0.076,70,4
654,-0.18,0.981,-0.054,70,4
655,-0.182,0.99,-0.019,70,4
656,-0.177,0.991,0.01,70,4
657,-0.179,0.99,0.027,70,4
658,-0.193,0.976,0.028,70,4
659,-0.221,0.958,0.026,69,4
660,-0.246,0.963,0.042,69,4
661,-0.252,0.98,0.062,69,4
662,-0.229,0.987,0.06,69,4
663,-0.182,0.98,0.033,69,4
664,-0.143,0.972,-0.002,69,4
665,-0.13,0.978,-0.023,69,4
666,-0.126,0.99,-0.015,69,4
667,-0.127,1.003,0.034,69,4
668,-0.155,0.998,0.101,69,4
669,-0.184,0.978,0.118,69,4
670,-0.192,0.976,0.092,69,4
671,-0.197,0.983,0.065,69,4
672,-0.201,0.983,0.049,69,4
673,-0.211,0.983,0.043,69,4
674,-0.217,0.977,0.041,69,4
675,-0.208,0.974,0.034,69,4
676,-0.201,0.991,0.018,69,4
677,-0.218,1.017,0,69,4
678,-0.248,1.027,-0.004,69,4
679,-0.261,1.016,0.011,68,4
680,-0.228,0.993,0.028,68,4
681,-0.169,0.974,0.033,68,4
682,-0.131,0.976,0.025,68,4
683,-0.114,0.995,0.004,68,4
684,-0.093,1.007,-0.007,68,4
685,-0.077,1,0.006,68,4
686,-0.127,0.993,0.025,68,4
687,-0.193,0.997,0.031,68,4
688,-0.184,0.995,0.029,68,4
689,-0.143,0.979,0.025,68,4
690,-0.156,0.973,0.029,68,4
691,-0.189,0.986,0.037,68,4
692,-0.176,0.995,0.046,68,4
693,-0.159,0.998,0.054,68,4
694,-0.134,0.992,0.041,68,4
695,-0.131,0.986,0.016,68,4
696,-0.123,0.995,-0.013,68,4
697,-0.09,1.006,-0.046,68,4
698,-0.078,1.006,-0.067,68,4
699,-0.066,1.008,-0.081,68,4
700,-0.044,1.005,-0.098,68,4
701,-0.007,1.004,-0.123,68,4
702,0.029,1.002,-0.14,68,4
703,0.074,0.995,-0.151,68,4
704,0.076,0.993,-0.162,68,4
705,0.044,0.991,-0.177,68,4
706,0.011,0.997,-0.194,68,4
707,-0.008,1.001,-0.209,68,4
708,0.022,0.977,-0.218,68,4
709,0.023,0.993,-0.221,67,4
710,0.025,1.023,-0.162,67,4
711,0.072,1.024,-0.091,67,4
712,0.057,1.033,-0.115,67,4
713,0.013,1.026,-0.184,67,4
714,0.01,1.001,-0.224,67,4
715,0.019,0.983,-0.24,67,4
716,-0.015,0.989,-0.259,67,4
717,-0.032,1.002,-0.25,67,4
718,0.003,0.995,-0.18,67,4
719,-0.009,1.005,-0.093,68,4
720,-0.078,1.002,-0.01,68,4
721,-0.105,0.975,0.051,68,4
722,-0.109,0.977,0.054,68,4
723,-0.121,0.989,0.041,68,4
724,-0.112,0.994,0.037,68,4
725,-0.085,0.984,0.043,68,4
726,-0.108,0.98,0.06,68,4
727,-0.136,0.988,0.074,68,4
728,-0.122,0.999,0.074,68,4
729,-0.119,1.006,0.076,69,4
730,-0.141,0.999,0.068,69,4
731,-0.175,0.996,0.049,69,4
732,-0.204,0.993,0.034,69,4
733,-0.228,0.99,0.016,69,4
734,-0.241,0.989,0.003,69,4
735,-0.247,0.986,-0.003,69,4
736,-0.25,0.984,-0.016,69,4
737,-0.256,0.985,-0.024,69,4
738,-0.28,0.988,-0.018,69,4
739,-0.287,0.989,-0.008,70,4
740,-0.263,0.985,-0.002,70,4
741,-0.251,0.976,-0.007,70,4
742,-0.245,0.97,-0.016,70,4
743,-0.232,0.973,-0.024,70,4
744,-0.222,0.979,-0.028,73,4
745,-0.22,0.987,-0.027,73,4
746,-0.223,0.992,-0.02,73,4
747,-0.227,0.993,-0.008,73,4
748,-0.227,0.991,0.003,73,4
749,-0.225,0.985,0.011,73,4
750,-0.228,0.982,0.011,73,4
751,-0.232,0.985,0.007,73,4
752,-0.237,0.988,0.002,73,4
753,-0.238,0.989,0,73,4
754,-0.228,0.99,0.004,73,4
755,-0.223,0.99,0.016,73,4
756,-0.229,0.988,0.034,73,4
757,-0.226,0.985,0.038,73,4
758,-0.224,0.987,0.025,73,4
759,-0.233,0.99,0.012,73,4
760,-0.239,0.99,0.009,73,4
761,-0.241,0.988,0.013,73,4
762,-0.236,0.986,0.018,73,4
763,-0.228,0.986,0.012,73,4
764,-0.226,0.985,0.006,73,4
765,-0.235,0.986,0.02,73,4
766,-0.244,0.988,0.064,73,4
767,-0.268,0.994,0.085,73,4
768,-0.253,1,0.032,73,4
769,-0.202,0.977,-0.045,73,4
770,-0.186,0.965,-0.041,73,4
771,-0.177,0.966,0.019,73,4
772,-0.168,0.965,-0.007,73,4
773,-0.232,1.004,-0.068,73,4
774,-0.267,1.015,-0.082,73,4
775,-0.233,0.977,-0.097,73,4
776,-0.219,0.965,-0.107,73,4
777,-0.21,0.975,-0.102,73,4
778,-0.214,0.978,-0.085,73,4
779,-0.214,0.982,-0.065,73,4
780,-0.219,0.995,-0.031,73,4
781,-0.22,1.008,0,73,4
782,-0.209,1.006,-0.004,73,4
783,-0.201,0.996,-0.022,73,4
784,-0.201,0.985,-0.037,73,4
785,-0.203,0.978,-0.052,73,4
786,-0.207,0.979,-0.058,73,4
787,-0.213,0.984,-0.053,73,4
788,-0.21,0.989,-0.044,74,4
789,-0.206,0.993,-0.033,74,4
790,-0.203,0.994,-0.021,74,4
791,-0.198,0.994,-0.012,74,4
792,-0.198,0.993,-0.007,74,4
793,-0.211,0.991,-0.005,74,4
794,-0.224,0.991,-0.014,74,4
795,-0.221,0.99,-0.027,74,4
796,-0.214,0.987,-0.029,74,4
797,-0.209,0.987,-0.024,74,4
798,-0.206,0.988,-0.02,74,4
799,-0.205,0.988,-0.016,74,4
800,-0.209,0.989,-0.015,74,4
801,-0.219,0.99,-0.019,74,4
802,-0.226,0.992,-0.02,74,4
803,-0.224,0.993,-0.022,74,4
804,-0.213,0.99,-0.029,74,4
805,-0.206,0.987,-0.027,74,4
806,-0.208,0.988,-0.021,74,4
807,-0.206,0.99,-0.02,74,4
808,-0.202,0.99,-0.021,75,4
809,-0.21,0.99,-0.02,75,4
810,-0.226,0.99,-0.018,75,4
811,-0.238,0.99,-0.013,75,4
812,-0.241,0.99,-0.012,75,4
813,-0.247,0.987,-0.004,75,4
814,-0.257,0.984,0.002,75,4
815,-0.25,0.986,-0.011,75,4
816,-0.215,0.989,-0.036,75,4
817,-0.17,0.99,-0.052,75,4
818,-0.145,0.992,-0.051,75,4
819,-0.141,0.994,-0.042,75,4
820,-0.15,0.994,-0.035,75,4
821,-0.169,0.995,-0.027,75,4
822,-0.195,0.995,-0.016,75,4
823,-0.218,0.994,-0.007,75,4
824,-0.229,0.992,0.001,75,4
825,-0.236,0.99,0.011,75,4
826,-0.237,0.989,0.008,75,4
827,-0.23,0.99,-0.015,75,4
828,-0.221,0.988,-0.035,76,4
829,-0.213,0.981,-0.031,76,4
830,-0.208,0.979,-0.016,76,4
831,-0.215,0.984,-0.004,76,4
832,-0.22,0.989,-0.009,76,4
833,-0.219,0.992,-0.024,76,4
834,-0.22,0.99,-0.023,76,4
835,-0.227,0.989,-0.001,76,4
836,-0.232,0.991,0.008,76,4
837,-0.223,0.991,-0.007,76,4
838,-0.199,0.988,-0.032,76,4
839,-0.182,0.988,-0.048,76,4
840,-0.182,0.989,-0.052,76,4
841,-0.188,0.981,-0.039,76,4
842,-0.195,0.981,-0.016,76,4
843,-0.214,0.995,0.001,76,4
844,-0.239,1,0.01,76,4
845,-0.241,0.994,0.011,76,4
846,-0.215,0.988,0.01,76,4
847,-0.197,0.988,0,76,4
848,-0.21,0.991,-0.012,76,4
849,-0.227,0.991,-0.019,76,4
850,-0.228,0.988,-0.015,76,4
851,-0.222,0.986,-0.006,76,4
852,-0.223,0.989,-0.002,76,4
853,-0.23,0.992,-0.001,76,4
854,-0.234,0.993,-0.001,76,4
855,-0.227,0.991,-0.004,76,4
856,-0.216,0.988,-0.001,76,4
857,-0.214,0.984,0.004,76,4
858,-0.221,0.985,0.003,75,4
859,-0.225,0.989,0,75,4
860,-0.223,0.99,-0.003,75,4
861,-0.219,0.991,-0.002,75,4
862,-0.218,0.991,0,75,4
863,-0.221,0.991,0.001,75,4
864,-0.223,0.989,0,75,4
865,-0.221,0.986,-0.003,75,4
866,-0.222,0.985,-0.007,75,4
867,-0.229,0.986,-0.01,75,4
868,-0.229,0.987,-0.011,75,4
869,-0.222,0.988,-0.012,75,4
870,-0.22,0.99,-0.01,75,4
871,-0.223,0.991,-0.009,75,4
872,-0.224,0.991,-0.009,75,4
873,-0.224,0.99,-0.009,75,4
874,-0.228,0.988,-0.008,75,4
875,-0.229,0.985,-0.009,75,4
876,-0.227,0.985,-0.013,75,4
877,-0.221,0.988,-0.017,75,4
878,-0.214,0.99,-0.022,76,4
879,-0.218,0.991,-0.024,76,4
880,-0.227,0.989,-0.017,76,4
881,-0.234,0.987,-0.009,76,4
882,-0.238,0.989,-0.005,76,4
883,-0.239,0.99,-0.007,76,4
884,-0.238,0.989,-0.011,76,4
885,-0.231,0.989,-0.015,76,4
886,-0.222,0.991,-0.018,76,4
887,-0.222,0.992,-0.017,76,4
888,-0.226,0.992,-0.012,77,4
889,-0.228,0.992,-0.008,77,4
890,-0.227,0.99,-0.007,77,4
891,-0.227,0.988,-0.011,77,4
892,-0.228,0.988,-0.016,77,4
893,-0.231,0.991,-0.018,77,4
894,-0.23,0.991,-0.011,77,4
895,-0.221,0.988,-0.001,77,4
896,-0.215,0.987,0,77,4
897,-0.222,0.989,-0.002,77,4
898,-0.23,0.989,-0.009,77,4
899,-0.227,0.989,-0.014,77,4
900,-0.217,0.988,-0.014,77,4
901,-0.211,0.987,-0.011,77,4
902,-0.207,0.987,-0.007,77,4
903,-0.207,0.989,-0.006,77,4
904,-0.211,0.989,-0.007,77,4
905,-0.217,0.99,-0.01,77,4
906,-0.221,0.99,-0.012,77,4
907,-0.219,0.989,-0.011,77,4
908,-0.213,0.987,-0.01,77,4
909,-0.209,0.989,-0.01,77,4
910,-0.215,0.991,-0.009,77,4
911,-0.22,0.991,-0.009,77,4
912,-0.218,0.991,-0.009,77,4
913,-0.219,0.991,-0.01,77,4
914,-0.226,0.992,-0.011,77,4
915,-0.228,0.992,-0.01,77,4
916,-0.221,0.992,-0.009,77,4
917,-0.214,0.993,-0.012,77,4
918,-0.212,0.996,-0.019,78,4
919,-0.21,0.997,-0.025,78,4
920,-0.2,0.998,-0.023,78,4
921,-0.182,0.998,-0.016,78,4
922,-0.17,0.997,-0.014,78,4
923,-0.176,0.993,-0.015,78,4
924,-0.19,0.991,-0.011,78,4
925,-0.194,0.993,0,78,4
926,-0.194,0.996,0.003,78,4
927,-0.198,0.998,-0.008,78,4
928,-0.206,0.995,-0.025,78,4
929,-0.216,0.985,-0.032,78,4
930,-0.214,0.972,-0.024,78,4
931,-0.192,0.966,-0.002,78,4
932,-0.164,0.971,0.026,78,4
933,-0.153,0.989,0.038,78,4
934,-0.172,1.017,0.02,78,4
935,-0.204,1.031,-0.013,78,4
936,-0.214,1.016,-0.042,78,4
937,-0.192,0.983,-0.052,78,4
938,-0.134,0.969,-0.047,78,4
939,-0.068,0.97,-0.021,78,4
940,-0.088,0.975,-0.011,78,4
941,-0.165,0.99,-0.032,78,4
942,-0.189,0.996,-0.054,78,4
943,-0.167,0.992,-0.071,78,4
944,-0.154,0.987,-0.083,78,4
945,-0.164,0.982,-0.095,78,4
946,-0.176,0.979,-0.104,78,4
947,-0.171,0.983,-0.104,78,4
948,-0.165,0.988,-0.094,78,4
949,-0.172,0.99,-0.073,78,4
950,-0.19,0.991,-0.051,78,4
951,-0.212,0.992,-0.053,78,4
952,-0.232,0.993,-0.077,78,4
953,-0.251,0.994,-0.104,78,4
954,-0.276,0.994,-0.125,78,4
955,-0.293,0.991,-0.136,78,4
956,-0.287,0.986,-0.134,78,4
957,-0.269,0.977,-0.13,78,4
958,-0.262,0.963,-0.122,78,4
959,-0.262,0.959,-0.114,78,4
960,-0.258,0.964,-0.111,78,4
961,-0.253,0.972,-0.111,78,4
962,-0.249,0.979,-0.111,78,4
963,-0.244,0.98,-0.11,78,4
964,-0.242,0.976,-0.109,78,4
965,-0.245,0.97,-0.11,78,4
966,-0.25,0.97,-0.108,78,4
967,-0.252,0.976,-0.106,78,4
968,-0.252,0.983,-0.103,79,4
969,-0.25,0.981,-0.098,79,4
970,-0.245,0.976,-0.099,79,4
971,-0.245,0.977,-0.104,79,4
972,-0.248,0.981,-0.11,79,4
973,-0.252,0.98,-0.112,79,4
974,-0.254,0.974,-0.114,79,4
975,-0.252,0.972,-0.116,79,4
976,-0.251,0.976,-0.116,79,4
977,-0.252,0.98,-0.114,79,4
978,-0.25,0.984,-0.113,79,4
979,-0.249,0.984,-0.114,79,4
980,-0.249,0.98,-0.114,79,4
981,-0.255,0.977,-0.115,79,4
982,-0.261,0.978,-0.117,79,4
983,-0.264,0.979,-0.119,79,4
984,-0.264,0.978,-0.119,79,4
985,-0.262,0.976,-0.118,79,4
986,-0.259,0.977,-0.118,79,4
987,-0.253,0.976,-0.116,79,4
988,-0.248,0.976,-0.115,79,4
989,-0.248,0.976,-0.114,79,4
990,-0.254,0.976,-0.115,79,4
991,-0.261,0.976,-0.119,79,4
992,-0.262,0.977,-0.121,79,4
993,-0.259,0.976,-0.12,79,4
994,-0.256,0.974,-0.119,79,4
995,-0.253,0.976,-0.117,79,4
996,-0.253,0.978,-0.118,79,4
997,-0.254,0.978,-0.12,79,4
998,-0.257,0.979,-0.123,79,4
999,-0.26,0.981,-0.123,79,4
1000,-0.258,0.982,-0.118,79,4
1001,-0.255,0.981,-0.116,79,4
1002,-0.25,0.977,-0.118,79,4
1003,-0.245,0.974,-0.125,79,4
1004,-0.246,0.976,-0.13,79,4
1005,-0.248,0.978,-0.129,79,4
1006,-0.251,0.978,-0.126,79,4
1007,-0.256,0.979,-0.12,79,4
1008,-0.258,0.979,-0.115,80,4
1009,-0.258,0.98,-0.117,80,4
1010,-0.256,0.983,-0.122,80,4
1011,-0.25,0.981,-0.124,80,4
1012,-0.248,0.974,-0.123,80,4
1013,-0.249,0.968,-0.12,80,4
1014,-0.249,0.967,-0.118,80,4
1015,-0.256,0.971,-0.12,80,4
1016,-0.276,0.973,-0.12,80,4
1017,-0.288,0.977,-0.12,80,4
1018,-0.276,0.984,-0.118,80,4
1019,-0.248,0.988,-0.113,80,4
1020,-0.222,0.986,-0.109,80,4
1021,-0.208,0.979,-0.108,80,4
1022,-0.209,0.974,-0.109,80,4
1023,-0.224,0.977,-0.112,80,4
1024,-0.243,0.982,-0.113,80,4
1025,-0.257,0.985,-0.113,80,4
1026,-0.259,0.984,-0.113,80,4
1027,-0.251,0.982,-0.113,80,4
1028,-0.242,0.981,-0.113,80,4
1029,-0.241,0.982,-0.112,80,4
1030,-0.242,0.985,-0.113,80,4
1031,-0.243,0.987,-0.112,80,4
1032,-0.241,0.985,-0.111,80,4
1033,-0.24,0.983,-0.112,80,4
1034,-0.237,0.982,-0.109,80,4
1035,-0.23,0.981,-0.105,80,4
1036,-0.23,0.98,-0.106,80,4
1037,-0.236,0.979,-0.104,80,4
1038,-0.232,0.983,-0.106,81,4
1039,-0.227,0.985,-0.103,81,4
1040,-0.222,0.984,-0.099,81,4
1041,-0.211,0.984,-0.101,81,4
1042,-0.213,0.982,-0.109,81,4
1043,-0.227,0.98,-0.116,81,4
1044,-0.238,0.981,-0.122,81,4
1045,-0.247,0.984,-0.128,81,4
1046,-0.252,0.985,-0.13,81,4
1047,-0.249,0.986,-0.13,81,4
1048,-0.243,0.987,-0.129,81,4
1049,-0.241,0.988,-0.125,81,4
1050,-0.24,0.986,-0.121,81,4
1051,-0.241,0.985,-0.115,81,4
1052,-0.237,0.983,-0.116,81,4
1053,-0.243,0.979,-0.121,81,4
1054,-0.254,0.978,-0.124,81,4
1055,-0.248,0.98,-0.121,81,4
1056,-0.24,0.984,-0.122,81,4
1057,-0.239,0.989,-0.129,81,4
1058,-0.239,0.989,-0.133,82,4
1059,-0.236,0.983,-0.137,82,4
1060,-0.239,0.974,-0.169,82,4
1061,-0.264,0.975,-0.172,82,4
1062,-0.253,0.984,-0.132,82,4
1063,-0.193,0.984,-0.112,82,4
1064,-0.168,0.977,-0.084,82,4
1065,-0.184,0.974,-0.051,82,4
1066,-0.198,0.978,-0.039,82,4
1067,-0.208,0.985,-0.044,82,4
1068,-0.223,0.992,-0.056,82,4
1069,-0.232,0.994,-0.068,82,4
1070,-0.232,0.992,-0.081,82,4
1071,-0.229,0.989,-0.093,82,4
1072,-0.229,0.982,-0.102,82,4
1073,-0.231,0.978,-0.109,82,4
1074,-0.234,0.979,-0.115,82,4
1075,-0.236,0.98,-0.118,82,4
1076,-0.234,0.981,-0.117,82,4
1077,-0.231,0.98,-0.116,82,4
1078,-0.231,0.981,-0.114,82,4
1079,-0.231,0.985,-0.1,82,4
1080,-0.225,0.987,-0.083,82,4
1081,-0.218,0.989,-0.079,82,4
1082,-0.22,0.987,-0.083,82,4
1083,-0.224,0.984,-0.088,82,4
1084,-0.227,0.985,-0.095,82,4
1085,-0.231,0.991,-0.1,82,4
1086,-0.238,0.994,-0.1,82,4
1087,-0.242,0.993,-0.096,82,4
1088,-0.24,0.989,-0.091,83,4
1089,-0.231,0.983,-0.085,83,4
1090,-0.221,0.981,-0.085,83,4
1091,-0.218,0.985,-0.093,83,4
1092,-0.223,0.987,-0.102,83,4
1093,-0.223,0.987,-0.105,83,4
1094,-0.217,0.987,-0.103,83,4
1095,-0.215,0.987,-0.094,83,4
1096,-0.218,0.987,-0.089,83,4
1097,-0.224,0.986,-0.087,83,4
1098,-0.229,0.985,-0.086,83,4
1099,-0.232,0.988,-0.091,83,4
1100,-0.237,0.992,-0.094,83,4
1101,-0.242,0.993,-0.097,83,4
1102,-0.243,0.987,-0.092,83,4
1103,-0.232,0.981,-0.086,83,4
1104,-0.217,0.983,-0.088,83,4
1105,-0.209,0.985,-0.097,83,4
1106,-0.203,0.976,-0.096,83,4
1107,-0.194,0.97,-0.089,83,4
1108,-0.2,0.976,-0.083,83,4
1109,-0.222,0.982,-0.08,83,4
1110,-0.237,0.983,-0.085,83,4
1111,-0.24,0.982,-0.093,83,4
1112,-0.238,0.981,-0.099,83,4
1113,-0.235,0.98,-0.1,83,4
1114,-0.231,0.981,-0.098,83,4
1115,-0.231,0.983,-0.095,83,4
1116,-0.236,0.99,-0.093,83,4
1117,-0.24,0.998,-0.094,83,4
1118,-0.24,0.997,-0.099,83,4
1119,-0.237,0.986,-0.101,83,4
1120,-0.232,0.979,-0.1,83,4
1121,-0.227,0.979,-0.102,83,4
1122,-0.224,0.981,-0.11,83,4
1123,-0.227,0.982,-0.115,83,4
1124,-0.233,0.982,-0.115,83,4
1125,-0.229,0.982,-0.118,83,4
1126,-0.223,0.98,-0.128,83,4
1127,-0.221,0.979,-0.136,83,4
1128,-0.217,0.977,-0.142,83,4
1129,-0.217,0.974,-0.144,83,4
1130,-0.22,0.978,-0.141,83,4
1131,-0.218,0.983,-0.137,83,4
1132,-0.215,0.986,-0.137,83,4
1133,-0.208,0.984,-0.144,83,4
1134,-0.2,0.975,-0.15,83,4
1135,-0.199,0.962,-0.148,83,4
1136,-0.202,0.959,-0.152,83,4
1137,-0.209,0.971,-0.163,83,4
1138,-0.209,0.979,-0.171,82,4
1139,-0.207,0.984,-0.18,82,4
1140,-0.212,0.988,-0.193,82,4
1141,-0.211,0.988,-0.206,82,4
1142,-0.21,0.985,-0.212,82,4
1143,-0.216,0.981,-0.209,82,4
1144,-0.218,0.978,-0.204,82,4
1145,-0.218,0.981,-0.201,82,4
1146,-0.22,0.988,-0.201,82,4
1147,-0.223,1.001,-0.203,82,4
1148,-0.224,1.01,-0.204,80,4
1149,-0.225,1.005,-0.194,80,4
1150,-0.222,0.998,-0.177,80,4
1151,-0.219,0.987,-0.161,80,4
1152,-0.211,0.98,-0.149,80,4
1153,-0.131,0.989,-0.14,80,4
1154,-0.064,1.005,-0.131,80,4
1155,-0.08,1.011,-0.14,80,4
1156,-0.081,1.007,-0.125,80,4
1157,-0.082,1.016,-0.101,80,4
1158,-0.091,1.022,-0.107,78,4
1159,-0.074,1.01,-0.102,78,4
1160,-0.073,0.997,-0.091,78,4
1161,-0.097,0.981,-0.09,78,4
1162,-0.136,0.98,-0.091,78,4
1163,-0.153,0.998,-0.095,78,4
1164,-0.139,1.009,-0.103,78,4
1165,-0.145,1.006,-0.101,78,4
1166,-0.153,0.999,-0.101,78,4
1167,-0.143,0.991,-0.108,78,4
1168,-0.137,0.991,-0.112,77,4
1169,-0.137,0.995,-0.117,77,4
1170,-0.135,0.993,-0.125,77,4
1171,-0.141,0.988,-0.125,77,4
1172,-0.145,0.974,-0.12,77,4
1173,-0.149,0.958,-0.105,77,4
1174,-0.154,0.939,-0.084,77,4
1175,-0.145,0.937,-0.059,77,4
1176,-0.141,0.961,-0.012,77,4
1177,-0.154,0.999,0.035,77,4
1178,-0.185,1.033,0.04,75,4
1179,-0.209,1.03,0.014,75,4
1180,-0.205,1.007,-0.013,75,4
1181,-0.197,0.988,-0.042,75,4
1182,-0.204,0.979,-0.066,75,4
1183,-0.218,0.981,-0.086,75,4
1184,-0.221,0.983,-0.101,75,4
1185,-0.199,0.98,-0.106,75,4
1186,-0.18,0.984,-0.109,75,4
1187,-0.184,0.993,-0.115,75,4
1188,-0.19,0.999,-0.117,74,4
1189,-0.187,0.999,-0.113,74,4
1190,-0.185,0.998,-0.107,74,4
1191,-0.176,1.001,-0.107,74,4
1192,-0.158,1.001,-0.105,74,4
1193,-0.159,0.998,-0.099,74,4
1194,-0.17,0.997,-0.097,74,4
1195,-0.168,0.996,-0.098,74,4
1196,-0.158,0.994,-0.097,74,4
1197,-0.147,0.991,-0.094,74,4
1198,-0.14,0.99,-0.093,73,4
1199,-0.144,0.99,-0.096,73,4
1200,-0.158,0.991,-0.101,73,4
1201,-0.169,0.99,-0.105,73,4
1202,-0.176,0.99,-0.109,73,4
1203,-0.183,0.991,-0.108,73,4
1204,-0.187,0.991,-0.103,73,4
1205,-0.189,0.992,-0.102,73,4
1206,-0.193,0.992,-0.103,73,4
1207,-0.187,0.989,-0.103,73,4
1208,-0.182,0.988,-0.106,72,4
1209,-0.186,0.988,-0.109,72,4
1210,-0.188,0.985,-0.108,72,4
1211,-0.191,0.986,-0.105,72,4
1212,-0.198,0.989,-0.104,72,4
1213,-0.205,0.99,-0.102,72,4
1214,-0.21,0.991,-0.102,72,4
1215,-0.208,0.993,-0.101,72,4
1216,-0.191,0.993,-0.097,72,4
1217,-0.181,0.989,-0.096,72,4
1218,-0.189,0.987,-0.097,72,4
1219,-0.194,0.989,-0.101,72,4
1220,-0.192,0.992,-0.106,72,4
1221,-0.194,0.992,-0.11,72,4
1222,-0.199,0.992,-0.113,72,4
1223,-0.198,0.991,-0.114,72,4
1224,-0.195,0.989,-0.112,72,4
1225,-0.197,0.988,-0.106,72,4
1226,-0.197,0.99,-0.103,72,4
1227,-0.198,0.993,-0.1,72,4
1228,-0.199,0.994,-0.096,71,4
1229,-0.198,0.992,-0.097,71,4
1230,-0.197,0.985,-0.098,71,4
1231,-0.188,0.978,-0.098,71,4
1232,-0.175,0.979,-0.102,71,4
1233,-0.174,0.983,-0.108,71,4
1234,-0.18,0.986,-0.115,71,4
1235,-0.187,0.988,-0.122,71,4
1236,-0.187,0.988,-0.124,71,4
1237,-0.184,0.99,-0.122,71,4
1238,-0.184,0.995,-0.118,71,4
1239,-0.187,0.997,-0.107,71,4
1240,-0.188,0.998,-0.093,71,4
1241,-0.178,1,-0.083,71,4
1242,-0.172,1.005,-0.075,71,4
1243,-0.17,0.999,-0.068,71,4
1244,-0.166,0.979,-0.073,71,4
1245,-0.175,0.965,-0.089,71,4
1246,-0.194,0.958,-0.101,71,4
1247,-0.21,0.962,-0.107,71,4
1248,-0.224,0.978,-0.111,70,4
1249,-0.237,0.992,-0.117,70,4
1250,-0.246,0.999,-0.122,70,4
1251,-0.248,0.999,-0.121,70,4
1252,-0.239,0.993,-0.112,70,4
1253,-0.221,0.987,-0.1,70,4
1254,-0.208,0.984,-0.093,70,4
1255,-0.207,0.985,-0.096,70,4
1256,-0.21,0.989,-0.104,70,4
1257,-0.208,0.994,-0.111,70,4
1258,-0.201,0.995,-0.108,72,4
1259,-0.196,0.993,-0.099,72,4
1260,-0.193,0.988,-0.093,72,4
1261,-0.191,0.983,-0.093,72,4
1262,-0.193,0.981,-0.096,72,4
1263,-0.196,0.981,-0.095,72,4
1264,-0.198,0.983,-0.091,72,4
1265,-0.202,0.983,-0.074,72,4
1266,-0.203,0.979,-0.057,72,4
1267,-0.206,0.979,-0.062,72,4
1268,-0.222,0.983,-0.076,71,4
1269,-0.237,0.986,-0.089,71,4
1270,-0.242,0.987,-0.098,71,4
1271,-0.244,0.989,-0.102,71,4
1272,-0.243,0.992,-0.104,71,4
1273,-0.242,0.993,-0.104,71,4
1274,-0.245,0.989,-0.1,71,4
1275,-0.245,0.979,-0.091,71,4
1276,-0.242,0.969,-0.083,71,4
1277,-0.239,0.969,-0.082,71,4
1278,-0.234,0.975,-0.088,73,4
1279,-0.228,0.98,-0.097,73,4
1280,-0.225,0.981,-0.1,73,4
1281,-0.228,0.977,-0.093,73,4
1282,-0.235,0.978,-0.088,73,4
1283,-0.238,0.988,-0.089,73,4
1284,-0.234,0.996,-0.093,73,4
1285,-0.229,0.999,-0.097,73,4
1286,-0.225,0.997,-0.099,73,4
1287,-0.218,0.993,-0.098,73,4
1288,-0.211,0.989,-0.096,72,4
1289,-0.208,0.985,-0.097,72,4
1290,-0.208,0.984,-0.1,72,4
1291,-0.212,0.983,-0.104,72,4
1292,-0.215,0.981,-0.108,72,4
1293,-0.218,0.981,-0.112,72,4
1294,-0.224,0.98,-0.112,72,4
1295,-0.228,0.981,-0.113,72,4
1296,-0.231,0.984,-0.113,72,4
1297,-0.235,0.985,-0.108,72,4
1298,-0.238,0.984,-0.105,74,4
1299,-0.241,0.986,-0.104,74,4
1300,-0.243,0.989,-0.099,74,4
1301,-0.243,0.989,-0.091,74,4
1302,-0.244,0.99,-0.083,74,4
1303,-0.245,0.989,-0.077,74,4
1304,-0.244,0.986,-0.074,74,4
1305,-0.242,0.986,-0.078,74,4
1306,-0.241,0.988,-0.086,74,4
1307,-0.242,0.988,-0.092,74,4
1308,-0.243,0.986,-0.094,73,4
1309,-0.24,0.985,-0.096,73,4
1310,-0.238,0.987,-0.098,73,4
1311,-0.24,0.986,-0.099,73,4
1312,-0.241,0.984,-0.099,73,4
1313,-0.239,0.981,-0.096,73,4
1314,-0.238,0.978,-0.093,73,4
1315,-0.237,0.975,-0.092,73,4
1316,-0.237,0.975,-0.095,73,4
1317,-0.237,0.978,-0.101,73,4
1318,-0.238,0.982,-0.106,74,4
1319,-0.239,0.985,-0.111,74,4
1320,-0.239,0.986,-0.109,74,4
1321,-0.239,0.985,-0.101,74,4
1322,-0.24,0.984,-0.094,74,4
1323,-0.24,0.986,-0.087,74,4
1324,-0.241,0.988,-0.084,74,4
1325,-0.245,0.988,-0.082,74,4
1326,-0.247,0.987,-0.079,74,4
1327,-0.246,0.989,-0.083,74,4
1328,-0.246,0.987,-0.087,76,4
1329,-0.245,0.983,-0.091,76,4
1330,-0.245,0.98,-0.096,76,4
1331,-0.246,0.981,-0.103,76,4
1332,-0.247,0.983,-0.108,76,4
1333,-0.251,0.983,-0.108,76,4
1334,-0.248,0.984,-0.101,76,4
1335,-0.241,0.985,-0.091,76,4
1336,-0.241,0.985,-0.084,76,4
1337,-0.242,0.984,-0.082,76,4
1338,-0.244,0.984,-0.078,78,4
1339,-0.246,0.986,-0.074,78,4
1340,-0.249,0.987,-0.076,78,4
1341,-0.249,0.987,-0.082,78,4
1342,-0.247,0.985,-0.087,78,4
1343,-0.246,0.978,-0.088,78,4
1344,-0.248,0.971,-0.087,78,4
1345,-0.249,0.975,-0.092,78,4
1346,-0.25,0.982,-0.098,78,4
1347,-0.249,0.981,-0.097,78,4
1348,-0.249,0.975,-0.09,79,4
1349,-0.249,0.976,-0.085,79,4
1350,-0.25,0.981,-0.086,79,4
1351,-0.252,0.982,-0.085,79,4
1352,-0.252,0.982,-0.083,79,4
1353,-0.25,0.985,-0.081,79,4
1354,-0.248,0.985,-0.075,79,4
1355,-0.249,0.983,-0.072,79,4
1356,-0.25,0.983,-0.073,79,4
1357,-0.25,0.984,-0.078,79,4
1358,-0.25,0.984,-0.084,81,4
1359,-0.251,0.982,-0.088,81,4
1360,-0.25,0.982,-0.088,81,4
1361,-0.25,0.981,-0.083,81,4
1362,-0.25,0.978,-0.074,81,4
1363,-0.254,0.977,-0.072,81,4
1364,-0.256,0.98,-0.08,81,4
1365,-0.254,0.984,-0.09,81,4
1366,-0.251,0.987,-0.095,81,4
1367,-0.247,0.985,-0.096,81,4
1368,-0.245,0.981,-0.091,82,4
1369,-0.245,0.98,-0.081,82,4
1370,-0.246,0.977,-0.075,82,4
1371,-0.245,0.974,-0.074,82,4
1372,-0.243,0.974,-0.075,82,4
1373,-0.237,0.982,-0.075,82,4
1374,-0.233,0.996,-0.075,82,4
1375,-0.237,0.995,-0.076,82,4
1376,-0.24,0.983,-0.077,82,4
1377,-0.241,0.977,-0.074,82,4
1378,-0.237,0.972,-0.072,83,4
1379,-0.235,0.967,-0.075,83,4
1380,-0.242,0.972,-0.086,83,4
1381,-0.247,0.985,-0.096,83,4
1382,-0.249,1.004,-0.099,83,4
1383,-0.249,1.01,-0.097,83,4
1384,-0.242,0.987,-0.099,83,4
1385,-0.232,0.958,-0.106,83,4
1386,-0.224,0.935,-0.11,83,4
1387,-0.216,0.918,-0.11,83,4
1388,-0.215,0.927,-0.11,84,4
1389,-0.244,0.965,-0.108,84,4
1390,-0.316,1.014,-0.108,84,4
1391,-0.321,1.035,-0.093,84,4
1392,-0.239,1.022,-0.065,84,4
1393,-0.199,1.008,-0.056,84,4
1394,-0.212,1.002,-0.067,84,4
1395,-0.232,0.998,-0.083,84,4
1396,-0.24,0.996,-0.099,84,4
1397,-0.231,0.993,-0.111,84,4
1398,-0.216,0.988,-0.117,85,4
1399,-0.204,0.979,-0.116,85,4
1400,-0.193,0.972,-0.114,85,4
1401,-0.187,0.972,-0.115,85,4
1402,-0.189,0.976,-0.116,85,4
1403,-0.192,0.98,-0.112,85,4
1404,-0.199,0.98,-0.102,85,4
1405,-0.21,0.973,-0.086,85,4
1406,-0.216,0.972,-0.075,85,4
1407,-0.222,0.979,-0.076,85,4
1408,-0.231,0.985,-0.083,86,4
1409,-0.24,0.987,-0.09,86,4
1410,-0.245,0.988,-0.096,86,4
1411,-0.249,0.988,-0.099,86,4
1412,-0.252,0.986,-0.101,86,4
1413,-0.252,0.985,-0.104,86,4
1414,-0.252,0.985,-0.108,86,4
1415,-0.254,0.986,-0.11,86,4
1416,-0.252,0.986,-0.109,86,4
1417,-0.249,0.987,-0.106,86,4
1418,-0.247,0.988,-0.103,87,4
1419,-0.245,0.987,-0.099,87,4
1420,-0.241,0.988,-0.097,87,4
1421,-0.235,0.988,-0.098,87,4
1422,-0.231,0.989,-0.101,87,4
1423,-0.227,0.989,-0.102,87,4
1424,-0.222,0.986,-0.1,87,4
1425,-0.22,0.982,-0.099,87,4
1426,-0.22,0.982,-0.101,87,4
1427,-0.221,0.983,-0.101,87,4
1428,-0.221,0.983,-0.102,87,4
1429,-0.226,0.986,-0.104,87,4
1430,-0.233,0.989,-0.103,87,4
1431,-0.233,0.988,-0.099,87,4
1432,-0.234,0.985,-0.094,87,4
1433,-0.236,0.981,-0.095,87,4
1434,-0.237,0.977,-0.099,87,4
1435,-0.239,0.978,-0.108,87,4
1436,-0.242,0.981,-0.114,87,4
1437,-0.243,0.979,-0.112,87,4
1438,-0.242,0.978,-0.107,88,4
1439,-0.241,0.978,-0.105,88,4
1440,-0.241,0.981,-0.109,88,4
1441,-0.241,0.986,-0.113,88,4
1442,-0.237,0.988,-0.114,88,4
1443,-0.235,0.987,-0.113,88,4
1444,-0.231,0.987,-0.111,88,4
1445,-0.228,0.984,-0.11,88,4
1446,-0.231,0.978,-0.109,88,4
1447,-0.23,0.969,-0.113,88,4
1448,-0.229,0.969,-0.126,88,4
1449,-0.236,0.988,-0.136,88,4
1450,-0.256,1.005,-0.13,88,4
1451,-0.273,1.003,-0.115,88,4
1452,-0.27,0.995,-0.105,88,4
1453,-0.255,0.99,-0.109,88,4
1454,-0.24,0.987,-0.109,88,4
1455,-0.231,0.983,-0.116,88,4
1456,-0.248,0.98,-0.123,88,4
1457,-0.26,0.979,-0.116,88,4
1458,-0.238,0.98,-0.117,87,4
1459,-0.22,0.982,-0.119,87,4
1460,-0.214,0.978,-0.115,87,4
1461,-0.209,0.966,-0.114,87,4
1462,-0.217,0.964,-0.116,87,4
1463,-0.225,0.973,-0.117,87,4
1464,-0.226,0.98,-0.116,87,4
1465,-0.232,0.98,-0.113,87,4
1466,-0.239,0.981,-0.111,87,4
1467,-0.242,0.984,-0.11,87,4
1468,-0.243,0.985,-0.112,85,4
1469,-0.243,0.987,-0.115,85,4
1470,-0.241,0.99,-0.117,85,4
1471,-0.241,0.988,-0.116,85,4
1472,-0.24,0.987,-0.115,85,4
1473,-0.24,0.986,-0.112,85,4
1474,-0.239,0.986,-0.109,85,4
1475,-0.237,0.988,-0.107,85,4
1476,-0.236,0.99,-0.105,85,4
1477,-0.234,0.989,-0.103,85,4
1478,-0.233,0.987,-0.102,86,4
1479,-0.229,0.987,-0.1,86,4
1480,-0.225,0.984,-0.099,86,4
1481,-0.223,0.984,-0.101,86,4
1482,-0.224,0.983,-0.104,86,4
1483,-0.224,0.982,-0.106,86,4
1484,-0.223,0.98,-0.108,86,4
1485,-0.221,0.979,-0.108,86,4
1486,-0.226,0.981,-0.104,86,4
1487,-0.232,0.982,-0.099,86,4
1488,-0.238,0.985,-0.094,84,4
1489,-0.244,0.988,-0.091,84,4
1490,-0.244,0.988,-0.094,84,4
1491,-0.241,0.989,-0.103,84,4
1492,-0.24,0.992,-0.107,84,4
1493,-0.239,0.988,-0.101,84,4
1494,-0.233,0.98,-0.089,84,4
1495,-0.227,0.978,-0.084,84,4
1496,-0.224,0.982,-0.09,84,4
1497,-0.222,0.983,-0.098,84,4
1498,-0.219,0.982,-0.103,83,4
1499,-0.218,0.992,-0.106,83,4
1500,-0.222,1.001,-0.099,83,4
1501,-0.223,0.996,-0.085,83,4
1502,-0.227,0.985,-0.073,83,4
1503,-0.232,0.985,-0.066,83,4
1504,-0.23,0.997,-0.061,83,4
1505,-0.221,1.02,-0.062,83,4
1506,-0.214,1.032,-0.074,83,4
1507,-0.216,1.002,-0.079,83,4
1508,-0.219,0.96,-0.072,82,4
1509,-0.216,0.947,-0.065,82,4
1510,-0.216,0.961,-0.057,82,4
1511,-0.22,0.974,-0.056,82,4
1512,-0.228,0.978,-0.057,82,4
1513,-0.23,0.977,-0.061,82,4
1514,-0.223,0.976,-0.069,82,4
1515,-0.214,0.975,-0.077,82,4
1516,-0.214,0.971,-0.083,82,4
1517,-0.217,0.97,-0.083,82,4
1518,-0.215,0.975,-0.076,82,4
1519,-0.21,0.984,-0.067,82,4
1520,-0.208,1,-0.058,82,4
1521,-0.206,1.007,-0.051,82,4
1522,-0.204,1,-0.043,82,4
1523,-0.197,0.995,-0.033,82,4
1524,-0.186,0.991,-0.027,82,4
1525,-0.182,0.989,-0.036,82,4
1526,-0.193,0.989,-0.056,82,4
1527,-0.203,0.984,-0.072,82,4
1528,-0.206,0.977,-0.08,82,4
1529,-0.21,0.984,-0.066,82,4
1530,-0.211,1.004,-0.056,82,4
1531,-0.221,1.004,-0.052,82,4
1532,-0.241,0.988,-0.041,82,4
1533,-0.249,0.987,-0.05,82,4
1534,-0.24,0.987,-0.062,82,4
1535,-0.225,0.983,-0.069,82,4
1536,-0.213,0.982,-0.081,82,4
1537,-0.207,0.986,-0.095,82,4
1538,-0.207,0.989,-0.102,82,4
1539,-0.205,0.991,-0.101,82,4
1540,-0.202,0.991,-0.09,82,4
1541,-0.2,0.984,-0.076,82,4
1542,-0.203,0.979,-0.067,82,4
1543,-0.207,0.976,-0.061,82,4
1544,-0.211,0.974,-0.06,82,4
1545,-0.219,0.978,-0.072,82,4
1546,-0.23,0.985,-0.087,82,4
1547,-0.239,0.988,-0.094,82,4
1548,-0.243,0.991,-0.094,81,4
1549,-0.245,0.994,-0.089,81,4
1550,-0.244,0.995,-0.081,81,4
1551,-0.24,0.994,-0.078,81,4
1552,-0.238,0.992,-0.081,81,4
1553,-0.236,0.99,-0.087,81,4
1554,-0.229,0.989,-0.091,81,4
1555,-0.223,0.99,-0.089,81,4
1556,-0.223,0.989,-0.085,81,4
1557,-0.225,0.984,-0.083,81,4
1558,-0.225,0.976,-0.083,81,4
1559,-0.225,0.976,-0.088,81,4
1560,-0.222,0.976,-0.097,81,4
1561,-0.22,0.96,-0.103,81,4
1562,-0.224,0.964,-0.115,81,4
1563,-0.216,1.007,-0.132,81,4
1564,-0.229,1.015,-0.116,81,4
1565,-0.263,0.985,-0.069,81,4
1566,-0.283,0.967,-0.04,81,4
1567,-0.293,0.957,-0.038,81,4
1568,-0.286,0.963,-0.053,81,4
1569,-0.272,0.973,-0.074,81,4
1570,-0.265,0.977,-0.086,81,4
1571,-0.259,0.976,-0.09,81,4
1572,-0.25,0.973,-0.097,81,4
1573,-0.244,0.976,-0.106,81,4
1574,-0.243,0.983,-0.112,81,4
1575,-0.243,0.988,-0.115,81,4
1576,-0.242,0.987,-0.115,81,4
1577,-0.238,0.981,-0.112,81,4
1578,-0.235,0.983,-0.111,81,4
1579,-0.236,0.992,-0.114,81,4
1580,-0.238,0.997,-0.113,81,4
1581,-0.236,0.995,-0.109,81,4
1582,-0.236,0.985,-0.101,81,4
1583,-0.234,0.975,-0.093,81,4
1584,-0.233,0.976,-0.092,81,4
1585,-0.237,0.983,-0.095,81,4
1586,-0.242,0.99,-0.1,81,4
1587,-0.243,0.992,-0.102,81,4
1588,-0.243,0.99,-0.099,81,4
1589,-0.24,0.986,-0.094,81,4
1590,-0.235,0.983,-0.09,81,4
1591,-0.233,0.978,-0.091,81,4
1592,-0.231,0.972,-0.096,81,4
1593,-0.228,0.977,-0.104,81,4
1594,-0.229,0.985,-0.107,81,4
1595,-0.231,0.985,-0.104,81,4
1596,-0.23,0.982,-0.099,81,4
1597,-0.229,0.981,-0.092,81,4
1598,-0.224,0.98,-0.091,81,4
1599,-0.225,0.982,-0.093,81,4
1600,-0.228,0.983,-0.096,81,4
1601,-0.231,0.982,-0.097,81,4
1602,-0.234,0.981,-0.096,81,4
1603,-0.238,0.981,-0.096,81,4
1604,-0.241,0.983,-0.096,81,4
1605,-0.244,0.985,-0.096,81,4
1606,-0.247,0.987,-0.096,81,4
1607,-0.249,0.988,-0.095,81,4
1608,-0.248,0.987,-0.097,81,4
1609,-0.246,0.988,-0.101,81,4
1610,-0.243,0.99,-0.103,81,4
1611,-0.239,0.991,-0.104,81,4
1612,-0.234,0.99,-0.102,81,4
1613,-0.22,0.981,-0.098,81,4
1614,-0.213,0.98,-0.101,81,4
1615,-0.212,0.98,-0.102,81,4
1616,-0.215,0.98,-0.1,81,4
1617,-0.222,0.982,-0.097,81,4
1618,-0.229,0.984,-0.093,82,4
1619,-0.236,0.984,-0.09,82,4
1620,-0.24,0.987,-0.092,82,4
1621,-0.242,0.989,-0.093,82,4
1622,-0.244,0.989,-0.094,82,4
1623,-0.245,0.99,-0.095,82,4
1624,-0.245,0.989,-0.093,82,4
1625,-0.245,0.987,-0.091,82,4
1626,-0.244,0.986,-0.09,82,4
1627,-0.244,0.985,-0.091,82,4
1628,-0.242,0.983,-0.093,82,4
1629,-0.241,0.983,-0.097,82,4
1630,-0.24,0.983,-0.101,82,4
1631,-0.24,0.982,-0.101,82,4
1632,-0.239,0.981,-0.101,82,4
1633,-0.237,0.982,-0.101,82,4
1634,-0.236,0.984,-0.1,82,4
1635,-0.236,0.986,-0.101,82,4
1636,-0.235,0.987,-0.099,82,4
1637,-0.233,0.988,-0.096,82,4
1638,-0.232,0.987,-0.091,82,4
1639,-0.232,0.986,-0.088,82,4
1640,-0.233,0.987,-0.088,82,4
1641,-0.235,0.989,-0.091,82,4
1642,-0.237,0.988,-0.094,82,4
1643,-0.237,0.987,-0.098,82,4
1644,-0.238,0.986,-0.098,82,4
1645,-0.24,0.985,-0.096,82,4
1646,-0.24,0.983,-0.093,82,4
1647,-0.241,0.983,-0.09,82,4
1648,-0.242,0.985,-0.089,83,4
1649,-0.244,0.987,-0.09,83,4
1650,-0.244,0.989,-0.089,83,4
1651,-0.243,0.988,-0.087,83,4
1652,-0.242,0.985,-0.084,83,4
1653,-0.241,0.983,-0.084,83,4
1654,-0.242,0.982,-0.086,83,4
1655,-0.244,0.982,-0.089,83,4
1656,-0.246,0.984,-0.091,83,4
1657,-0.247,0.987,-0.092,83,4
1658,-0.248,0.984,-0.088,83,4
1659,-0.249,0.979,-0.083,83,4
1660,-0.249,0.977,-0.081,83,4
1661,-0.249,0.981,-0.081,83,4
1662,-0.252,0.984,-0.082,83,4
1663,-0.252,0.985,-0.077,83,4
1664,-0.25,0.985,-0.073,83,4
1665,-0.25,0.985,-0.07,83,4
1666,-0.25,0.982,-0.065,83,4
1667,-0.248,0.979,-0.063,83,4
1668,-0.248,0.979,-0.066,84,4
1669,-0.249,0.978,-0.07,84,4
1670,-0.25,0.979,-0.074,84,4
1671,-0.252,0.982,-0.075,84,4
1672,-0.255,0.981,-0.071,84,4
1673,-0.255,0.978,-0.064,84,4
1674,-0.252,0.978,-0.061,84,4
1675,-0.25,0.977,-0.06,84,4
1676,-0.247,0.975,-0.061,84,4
1677,-0.246,0.973,-0.063,84,4
1678,-0.248,0.973,-0.067,84,4
1679,-0.254,0.978,-0.069,84,4
1680,-0.262,0.982,-0.063,84,4
1681,-0.268,0.982,-0.052,84,4
1682,-0.271,0.979,-0.048,84,4
1683,-0.273,0.98,-0.053,84,4
1684,-0.273,0.983,-0.062,84,4
1685,-0.27,0.982,-0.067,84,4
1686,-0.264,0.98,-0.07,84,4
1687,-0.257,0.979,-0.072,84,4
1688,-0.256,0.98,-0.07,84,4
1689,-0.256,0.982,-0.068,84,4
1690,-0.254,0.983,-0.064,84,4
1691,-0.253,0.982,-0.061,84,4
1692,-0.253,0.983,-0.061,84,4
1693,-0.252,0.985,-0.062,84,4
1694,-0.25,0.986,-0.065,84,4
1695,-0.248,0.987,-0.067,84,4
1696,-0.245,0.984,-0.069,84,4
1697,-0.244,0.982,-0.072,84,4
1698,-0.245,0.982,-0.072,85,4
1699,-0.246,0.982,-0.071,85,4
1700,-0.245,0.983,-0.068,85,4
1701,-0.245,0.984,-0.066,85,4
1702,-0.246,0.984,-0.065,85,4
1703,-0.246,0.984,-0.062,85,4
1704,-0.246,0.986,-0.062,85,4
1705,-0.247,0.985,-0.062,85,4
1706,-0.248,0.984,-0.061,85,4
1707,-0.25,0.986,-0.061,85,4
1708,-0.25,0.987,-0.061,85,4
1709,-0.249,0.983,-0.062,85,4
1710,-0.246,0.98,-0.065,85,4
1711,-0.244,0.979,-0.067,85,4
1712,-0.245,0.978,-0.065,85,4
1713,-0.246,0.979,-0.062,85,4
1714,-0.246,0.983,-0.061,85,4
1715,-0.246,0.984,-0.062,85,4
1716,-0.245,0.984,-0.065,85,4
1717,-0.246,0.985,-0.064,85,4
1718,-0.25,0.985,-0.06,86,4
1719,-0.253,0.985,-0.057,86,4
1720,-0.253,0.984,-0.056,86,4
1721,-0.252,0.986,-0.058,86,4
1722,-0.251,0.985,-0.061,86,4
1723,-0.249,0.984,-0.063,86,4
1724,-0.249,0.984,-0.066,86,4
1725,-0.249,0.984,-0.064,86,4
1726,-0.246,0.982,-0.061,86,4
1727,-0.243,0.983,-0.06,86,4
1728,-0.244,0.985,-0.059,86,4
1729,-0.247,0.987,-0.058,86,4
1730,-0.248,0.989,-0.057,86,4
1731,-0.247,0.989,-0.054,86,4
1732,-0.245,0.988,-0.053,86,4
1733,-0.244,0.987,-0.052,86,4
1734,-0.242,0.988,-0.054,86,4
1735,-0.239,0.989,-0.058,86,4
1736,-0.236,0.989,-0.061,86,4
1737,-0.234,0.986,-0.059,86,4
1738,-0.235,0.985,-0.055,86,4
1739,-0.235,0.984,-0.051,86,4
1740,-0.233,0.984,-0.051,86,4
1741,-0.237,0.986,-0.05,86,4
1742,-0.239,0.986,-0.048,86,4
1743,-0.239,0.987,-0.048,86,4
1744,-0.239,0.988,-0.046,86,4
1745,-0.239,0.986,-0.042,86,4
1746,-0.24,0.984,-0.04,86,4
1747,-0.24,0.985,-0.041,86,4
1748,-0.241,0.985,-0.041,87,4
1749,-0.241,0.981,-0.043,87,4
1750,-0.242,0.981,-0.048,87,4
1751,-0.243,0.985,-0.052,87,4
1752,-0.242,0.984,-0.055,87,4
1753,-0.235,0.986,-0.058,87,4
1754,-0.231,0.986,-0.058,87,4
1755,-0.235,0.979,-0.051,87,4
1756,-0.238,0.978,-0.044,87,4
1757,-0.241,0.984,-0.039,87,4
1758,-0.245,0.989,-0.037,87,4
1759,-0.249,0.992,-0.037,87,4
1760,-0.251,0.992,-0.039,87,4
1761,-0.249,0.99,-0.044,87,4
1762,-0.246,0.988,-0.048,87,4
1763,-0.243,0.987,-0.052,87,4
1764,-0.241,0.984,-0.055,87,4
1765,-0.239,0.982,-0.055,87,4
1766,-0.237,0.984,-0.054,87,4
1767,-0.235,0.985,-0.054,87,4
1768,-0.233,0.985,-0.055,87,4
1769,-0.234,0.985,-0.055,87,4
1770,-0.239,0.986,-0.055,87,4
1771,-0.243,0.988,-0.055,87,4
1772,-0.246,0.989,-0.053,87,4
1773,-0.247,0.989,-0.051,87,4
1774,-0.247,0.989,-0.049,87,4
1775,-0.247,0.988,-0.048,87,4
1776,-0.247,0.987,-0.049,87,4
1777,-0.246,0.988,-0.052,87,4
1778,-0.242,0.987,-0.055,87,4
1779,-0.236,0.985,-0.056,87,4
1780,-0.234,0.985,-0.053,87,4
1781,-0.234,0.986,-0.051,87,4
1782,-0.236,0.989,-0.049,87,4
1783,-0.238,0.99,-0.047,87,4
1784,-0.24,0.989,-0.047,87,4
1785,-0.24,0.985,-0.047,87,4
1786,-0.24,0.983,-0.048,87,4
1787,-0.243,0.986,-0.049,87,4
1788,-0.247,0.986,-0.049,88,4
1789,-0.247,0.985,-0.053,88,4
1790,-0.243,0.985,-0.06,88,4
1791,-0.237,0.982,-0.061,88,4
1792,-0.23,0.981,-0.058,88,4
1793,-0.226,0.984,-0.052,88,4
1794,-0.226,0.988,-0.046,88,4
1795,-0.222,0.991,-0.041,88,4
1796,-0.218,0.992,-0.038,88,4
1797,-0.219,0.989,-0.037,88,4
1798,-0.224,0.987,-0.04,88,4
1799,-0.23,0.988,-0.044,88,4
1800,-0.232,0.989,-0.047,88,4
1801,-0.23,0.988,-0.049,88,4
1802,-0.229,0.987,-0.05,88,4
1803,-0.229,0.985,-0.05,88,4
1804,-0.229,0.985,-0.048,88,4
1805,-0.228,0.989,-0.047,88,4
1806,-0.226,0.99,-0.046,88,4
1807,-0.224,0.985,-0.049,88,4
1808,-0.223,0.981,-0.051,88,4
1809,-0.229,0.983,-0.051,88,4
1810,-0.238,0.987,-0.05,88,4
1811,-0.243,0.99,-0.049,88,4
1812,-0.244,0.991,-0.05,88,4
1813,-0.239,0.988,-0.049,88,4
1814,-0.233,0.982,-0.047,88,4
1815,-0.229,0.982,-0.049,88,4
1816,-0.228,0.984,-0.051,88,4
1817,-0.224,0.984,-0.05,88,4
1818,-0.223,0.985,-0.046,88,4
1819,-0.229,0.986,-0.042,88,4
1820,-0.234,0.989,-0.042,88,4
1821,-0.239,0.99,-0.041,88,4
1822,-0.241,0.99,-0.041,88,4
1823,-0.241,0.989,-0.045,88,4
1824,-0.241,0.985,-0.049,88,4
1825,-0.242,0.983,-0.049,88,4
1826,-0.245,0.985,-0.047,88,4
1827,-0.248,0.988,-0.046,88,4
1828,-0.249,0.989,-0.045,89,4
1829,-0.247,0.989,-0.044,89,4
1830,-0.238,0.986,-0.047,89,4
1831,-0.227,0.981,-0.049,89,4