Sample Count,Acceleration X (g),Acceleration Y (g),Acceleration Z (g),Heart Rate (bpm),Activity
0,-0.477,-0.101,0.565,60,0
1,-0.455,-0.082,0.554,60,0
2,-0.5,-0.065,0.551,60,0
3,-0.583,-0.05,0.602,60,0
4,-0.632,-0.008,0.678,60,0
5,-0.687,0.039,0.731,60,0
6,-0.683,0.075,0.768,60,0
7,-0.7,0.077,0.78,60,0
8,-0.77,0.105,0.797,60,0
9,-0.792,0.169,0.791,60,0
10,-0.772,0.178,0.725,60,0
11,-0.755,0.174,0.703,60,0
12,-0.746,0.194,0.709,60,0
13,-0.738,0.198,0.693,60,0
14,-0.705,0.183,0.693,60,0
15,-0.633,0.128,0.717,60,0
16,-0.571,0.054,0.726,60,0
17,-0.538,0.013,0.705,60,0
18,-0.529,0.002,0.697,60,0
19,-0.53,-0.001,0.703,60,0
20,-0.536,-0.003,0.712,60,0
21,-0.553,0.008,0.741,60,0
22,-0.603,0.027,0.751,60,0
23,-0.603,0.027,0.751,60,0
24,-0.603,0.027,0.751,60,0
25,-0.698,0.043,0.76,60,0
26,-0.79,0.081,0.799,60,0
27,-0.845,0.11,0.785,60,0
28,-0.867,0.116,0.712,60,0
29,-0.892,0.114,0.643,60,0
30,-0.9,0.112,0.605,60,0
31,-0.855,0.11,0.6,60,0
32,-0.777,0.086,0.604,60,0
33,-0.682,0.053,0.619,60,0
34,-0.586,0.028,0.663,60,0
35,-0.492,-0.005,0.716,60,0
36,-0.413,-0.045,0.76,60,0
37,-0.391,-0.053,0.77,60,0
38,-0.496,0.001,0.741,60,0
39,-0.61,0.102,0.738,60,0
40,-0.671,0.17,0.737,60,0
41,-0.752,0.197,0.731,60,0
42,-0.773,0.22,0.713,60,0
43,-0.742,0.258,0.661,60,0
44,-0.747,0.282,0.565,60,0
45,-0.779,0.314,0.489,60,0
46,-0.768,0.388,0.48,60,0
47,-0.736,0.429,0.465,60,0
48,-0.678,0.475,0.515,60,0
49,-0.572,0.478,0.592,60,0
50,-0.552,0.493,0.592,60,0
51,-0.626,0.565,0.57,60,0
52,-0.681,0.557,0.535,60,0
53,-0.678,0.517,0.508,60,0
54,-0.685,0.489,0.513,60,0
55,-0.695,0.501,0.531,60,0
56,-0.683,0.525,0.555,60,0
57,-0.679,0.549,0.572,60,0
58,-0.638,0.578,0.569,60,0
59,-0.622,0.631,0.541,59,0
60,-0.649,0.677,0.555,59,0
61,-0.632,0.663,0.567,59,0
62,-0.605,0.631,0.564,59,0
63,-0.614,0.609,0.597,59,0
64,-0.606,0.61,0.583,59,0
65,-0.572,0.637,0.549,59,0
66,-0.532,0.645,0.548,59,0
67,-0.509,0.627,0.559,59,0
68,-0.52,0.617,0.579,59,0
69,-0.531,0.612,0.583,59,0
70,-0.524,0.603,0.577,59,0
71,-0.544,0.592,0.59,59,0
72,-0.572,0.643,0.614,59,0
73,-0.571,0.782,0.604,59,0
74,-0.542,0.965,0.499,59,0
75,-0.471,1.125,0.332,59,0
76,-0.401,1.157,0.228,59,0
77,-0.321,1.043,0.244,59,0
78,-0.258,0.854,0.353,59,0
79,-0.301,0.685,0.483,59,0
80,-0.426,0.588,0.596,59,0
81,-0.593,0.556,0.719,59,0
82,-0.76,0.548,0.814,59,0
83,-0.871,0.509,0.847,59,0
84,-0.895,0.426,0.827,59,0
85,-0.856,0.356,0.787,59,0
86,-0.779,0.336,0.726,59,0
87,-0.63,0.371,0.628,59,0
88,-0.479,0.478,0.548,59,0
89,-0.39,0.637,0.447,59,0
90,-0.311,0.818,0.367,59,0
91,-0.252,0.94,0.424,59,0
92,-0.237,0.962,0.481,59,0
93,-0.245,0.936,0.434,59,0
94,-0.218,0.952,0.379,59,0
95,-0.171,0.988,0.332,59,0
96,-0.171,0.956,0.293,59,0
97,-0.177,0.936,0.317,59,0
98,-0.159,0.965,0.366,59,0
99,-0.15,0.971,0.37,59,0
100,-0.142,0.948,0.351,59,0
101,-0.14,0.941,0.345,59,0
102,-0.13,0.956,0.35,59,0
103,-0.121,0.955,0.355,59,0
104,-0.134,0.962,0.369,59,0
105,-0.104,0.973,0.369,59,0
106,-0.032,0.95,0.344,59,0
107,-0.006,0.946,0.32,59,0
108,-0.03,0.969,0.302,59,0
109,-0.037,0.956,0.279,59,0
110,-0.025,0.944,0.261,59,0
111,-0.027,0.966,0.262,59,0
112,-0.038,0.98,0.259,59,0
113,-0.047,0.978,0.254,59,0
114,-0.057,0.973,0.262,59,0
115,-0.063,0.974,0.274,59,0
116,-0.065,0.978,0.287,59,0
117,-0.075,0.971,0.299,59,0
118,-0.081,0.949,0.302,59,0
119,-0.086,0.935,0.313,59,0
120,-0.103,0.941,0.337,59,0
121,-0.116,0.958,0.369,59,0
122,-0.129,0.97,0.384,59,0
123,-0.123,0.979,0.357,59,0
124,-0.098,0.978,0.311,59,0
125,-0.09,0.971,0.265,59,0
126,-0.091,0.971,0.231,59,0
127,-0.07,0.966,0.218,59,0
128,-0.044,0.954,0.217,59,0
129,-0.048,0.957,0.213,59,0
130,-0.078,0.977,0.21,59,0
131,-0.101,0.986,0.211,59,0
132,-0.12,0.989,0.218,59,0
133,-0.115,0.989,0.227,59,0
134,-0.076,0.952,0.221,59,0
135,-0.058,0.934,0.206,59,0
136,-0.055,0.959,0.187,59,0
137,-0.051,0.987,0.176,59,0
138,-0.046,1.014,0.185,59,0
139,-0.042,1.039,0.206,60,0
140,-0.024,1.03,0.218,60,0
141,0.034,0.975,0.198,60,0
142,0.072,0.953,0.163,60,0
143,0.053,0.977,0.154,60,0
144,0.036,1.009,0.177,60,0
145,0.031,1.011,0.207,60,0
146,0.009,0.993,0.22,60,0
147,-0.003,0.984,0.206,60,0
148,-0.001,0.973,0.201,60,0
149,0,0.952,0.225,59,0
150,-0.004,0.94,0.25,59,0
151,-0.012,0.946,0.256,59,0
152,-0.019,0.955,0.256,59,0
153,-0.047,0.972,0.268,59,0
154,-0.083,1.016,0.287,59,0
155,-0.09,1.03,0.297,59,0
156,-0.096,0.986,0.301,59,0
157,-0.148,0.956,0.326,59,0
158,-0.188,0.964,0.352,59,0
159,-0.16,0.955,0.342,59,0
160,-0.104,0.928,0.311,59,0
161,-0.089,0.943,0.278,59,0
162,-0.106,0.98,0.257,59,0
163,-0.118,0.971,0.241,59,0
164,-0.123,0.948,0.228,59,0
165,-0.119,0.958,0.228,59,0
166,-0.117,0.974,0.235,59,0
167,-0.118,0.977,0.238,59,0
168,-0.121,0.977,0.231,59,0
169,-0.123,0.971,0.226,59,0
170,-0.121,0.962,0.224,59,0
171,-0.118,0.963,0.222,59,0
172,-0.107,0.968,0.223,59,0
173,-0.111,0.976,0.231,59,0
174,-0.131,1.009,0.248,59,0
175,-0.134,1.04,0.265,59,0
176,-0.022,0.942,0.255,59,0
177,-0.014,0.975,0.239,59,0
178,-0.041,1.009,0.235,59,0
179,-0.071,1.01,0.269,60,0
180,-0.098,1,0.303,60,0
181,-0.113,0.975,0.3,60,0
182,-0.108,0.946,0.281,60,0
183,-0.084,0.928,0.272,60,0
184,-0.064,0.908,0.281,60,0
185,-0.063,0.892,0.29,60,0
186,-0.066,0.891,0.292,60,0
187,-0.069,0.901,0.302,60,0
188,-0.102,0.929,0.324,60,0
189,-0.15,0.968,0.348,60,0
190,-0.194,0.993,0.371,60,0
191,-0.219,0.992,0.402,60,0
192,-0.226,0.945,0.39,60,0
193,-0.199,0.905,0.337,60,0
194,-0.145,0.921,0.314,60,0
195,-0.125,0.954,0.302,60,0
196,-0.144,0.969,0.292,60,0
197,-0.153,0.964,0.282,60,0
198,-0.135,0.951,0.262,60,0
199,-0.126,0.947,0.256,60,0
200,-0.134,0.95,0.261,60,0
201,-0.144,0.961,0.262,60,0
202,-0.151,0.964,0.263,60,0
203,-0.158,0.951,0.268,60,0
204,-0.168,0.951,0.277,60,0
205,-0.18,0.966,0.294,60,0
206,-0.2,0.98,0.32,60,0
207,-0.218,0.983,0.344,60,0
208,-0.26,1.003,0.373,60,0
209,-0.288,0.99,0.395,60,0
210,-0.181,0.902,0.378,60,0
211,-0.015,0.856,0.34,60,0
212,0.046,0.909,0.313,60,0
213,-0.01,0.965,0.29,60,0
214,-0.057,0.959,0.276,60,0
215,-0.041,0.928,0.274,60,0
216,-0.028,0.916,0.286,60,0
217,-0.03,0.928,0.312,60,0
218,-0.046,0.931,0.337,60,0
219,-0.071,0.913,0.356,60,0
220,-0.076,0.899,0.371,60,0
221,-0.074,0.902,0.379,60,0
222,-0.117,0.93,0.395,60,0
223,-0.175,0.951,0.417,60,0
224,-0.232,0.951,0.436,60,0
225,-0.249,0.905,0.435,60,0
226,-0.269,0.884,0.466,60,0
227,-0.269,0.904,0.488,60,0
228,-0.192,0.895,0.444,60,0
229,-0.17,0.903,0.408,61,0
230,-0.2,0.932,0.389,61,0
231,-0.197,0.935,0.351,61,0
232,-0.195,0.926,0.306,61,0
233,-0.213,0.943,0.294,61,0
234,-0.206,0.963,0.301,61,0
235,-0.168,0.95,0.305,61,0
236,-0.159,0.929,0.3,61,0
237,-0.185,0.93,0.291,61,0
238,-0.196,0.937,0.279,61,0
239,-0.198,0.95,0.277,61,0
240,-0.201,0.957,0.297,61,0
241,-0.183,0.953,0.302,61,0
242,-0.162,0.959,0.298,61,0
243,-0.194,0.989,0.325,61,0
244,-0.256,1.004,0.35,61,0
245,-0.218,0.954,0.333,61,0
246,-0.068,0.909,0.303,61,0
247,0.038,0.916,0.278,61,0
248,0.024,0.943,0.269,61,0
249,-0.048,0.965,0.281,61,0
250,-0.088,0.97,0.303,61,0
251,-0.086,0.963,0.314,61,0
252,-0.082,0.954,0.312,61,0
253,-0.088,0.948,0.313,61,0
254,-0.097,0.933,0.31,61,0
255,-0.117,0.922,0.325,61,0
256,-0.127,0.919,0.337,61,0
257,-0.133,0.94,0.342,61,0
258,-0.152,0.965,0.38,61,0
259,-0.16,0.937,0.391,62,0
260,-0.195,0.906,0.378,62,0
261,-0.251,0.904,0.411,62,0
262,-0.3,0.89,0.447,62,0
263,-0.278,0.883,0.42,62,0
264,-0.189,0.907,0.365,62,0
265,-0.167,0.933,0.351,62,0
266,-0.214,0.944,0.351,62,0
267,-0.224,0.939,0.327,62,0
268,-0.189,0.938,0.307,62,0
269,-0.176,0.948,0.302,62,0
270,-0.169,0.951,0.297,62,0
271,-0.155,0.945,0.285,62,0
272,-0.162,0.949,0.278,62,0
273,-0.175,0.95,0.272,62,0
274,-0.167,0.95,0.266,62,0
275,-0.154,0.967,0.275,62,0
276,-0.14,0.968,0.279,62,0
277,-0.135,0.959,0.273,62,0
278,-0.167,0.976,0.288,62,0
279,-0.204,0.989,0.307,62,0
280,-0.149,0.938,0.301,62,0
281,-0.018,0.902,0.282,62,0
282,0.031,0.946,0.291,62,0
283,-0.022,0.989,0.305,62,0
284,-0.068,0.986,0.301,62,0
285,-0.059,0.955,0.292,62,0
286,-0.032,0.935,0.279,62,0
287,-0.033,0.947,0.279,62,0
288,-0.054,0.968,0.29,62,0
289,-0.076,0.966,0.307,62,0
290,-0.09,0.956,0.319,62,0
291,-0.096,0.961,0.329,62,0
292,-0.095,0.96,0.339,62,0
293,-0.1,0.953,0.334,62,0
294,-0.123,0.956,0.331,62,0
295,-0.132,0.942,0.34,62,0
296,-0.145,0.934,0.347,62,0
297,-0.181,0.95,0.356,62,0
298,-0.172,0.946,0.341,62,0
299,-0.14,0.94,0.313,62,0
300,-0.156,0.959,0.32,62,0
301,-0.136,0.964,0.309,62,0
302,-0.087,0.945,0.267,62,0
303,-0.09,0.944,0.249,62,0
304,-0.101,0.958,0.263,62,0
305,-0.113,0.964,0.283,62,0
306,-0.14,0.972,0.297,62,0
307,-0.17,0.976,0.301,62,0
308,-0.184,0.964,0.299,62,0
309,-0.183,0.956,0.299,63,0
310,-0.153,0.946,0.297,63,0
311,-0.143,0.941,0.302,63,0
312,-0.169,0.945,0.307,63,0
313,-0.193,0.942,0.304,63,0
314,-0.225,0.967,0.325,63,0
315,-0.268,0.973,0.343,63,0
316,-0.231,0.918,0.334,63,0
317,-0.097,0.906,0.327,63,0
318,-0.042,0.949,0.336,63,0
319,-0.09,0.982,0.342,63,0
320,-0.134,0.978,0.317,63,0
321,-0.137,0.942,0.281,63,0
322,-0.111,0.918,0.272,63,0
323,-0.098,0.928,0.289,63,0
324,-0.106,0.948,0.31,63,0
325,-0.112,0.945,0.322,63,0
326,-0.117,0.93,0.322,63,0
327,-0.128,0.93,0.319,63,0
328,-0.15,0.945,0.322,63,0
329,-0.187,0.954,0.334,63,0
330,-0.22,0.951,0.351,63,0
331,-0.242,0.94,0.373,63,0
332,-0.285,0.929,0.389,63,0
333,-0.305,0.935,0.38,63,0
334,-0.248,0.936,0.352,63,0
335,-0.195,0.93,0.328,63,0
336,-0.2,0.947,0.313,63,0
337,-0.216,0.965,0.294,63,0
338,-0.19,0.95,0.252,63,0
339,-0.145,0.927,0.211,63,0
340,-0.123,0.925,0.203,63,0
341,-0.119,0.947,0.215,63,0
342,-0.118,0.972,0.229,63,0
343,-0.115,0.981,0.237,63,0
344,-0.116,0.977,0.235,63,0
345,-0.132,0.975,0.233,63,0
346,-0.139,0.978,0.237,63,0
347,-0.121,0.987,0.251,63,0
348,-0.144,1.028,0.285,63,0
349,-0.212,1.114,0.316,63,0
350,-0.184,1.101,0.299,63,0
351,-0.063,0.974,0.299,63,0
352,0.036,0.953,0.243,63,0
353,0.019,1.001,0.064,63,0
354,-0.047,0.979,0.067,63,0
355,-0.042,0.904,0.177,63,0
356,-0.082,0.855,0.21,63,0
357,-0.177,0.834,0.294,63,0
358,-0.234,0.804,0.373,63,0
359,-0.195,0.805,0.427,63,0
360,-0.156,0.83,0.586,63,0
361,-0.178,0.801,0.694,63,0
362,-0.19,0.766,0.644,63,0
363,-0.232,0.82,0.581,63,0
364,-0.325,0.999,0.471,63,0
365,-0.484,1.218,0.261,63,0
366,-0.568,1.29,0.152,63,0
367,-0.547,1.149,0.168,63,0
368,-0.444,0.892,0.229,63,0
369,-0.288,0.625,0.35,63,0
370,-0.24,0.418,0.441,63,0
371,-0.219,0.362,0.437,63,0
372,-0.287,0.537,0.335,63,0
373,-0.5,0.863,0.268,63,0
374,-0.589,1.086,0.247,63,0
375,-0.518,1.135,0.217,63,0
376,-0.39,1.121,0.199,63,0
377,-0.264,1.079,0.151,63,0
378,-0.23,1.031,0.113,63,0
379,-0.286,1.001,0.116,63,0
380,-0.351,0.972,0.131,63,0
381,-0.346,0.971,0.134,63,0
382,-0.269,1.044,0.102,63,0
383,-0.225,1.164,0.047,63,0
384,-0.217,1.158,0.043,63,0
385,-0.17,1.008,0.11,63,0
386,-0.113,0.91,0.15,63,0
387,-0.124,0.909,0.129,63,0
388,-0.184,0.92,0.118,63,0
389,-0.223,0.892,0.155,63,0
390,-0.237,0.853,0.2,63,0
391,-0.254,0.858,0.23,63,0
392,-0.291,0.896,0.256,63,0
393,-0.323,0.921,0.278,63,0
394,-0.333,0.931,0.303,63,0
395,-0.32,0.926,0.332,63,0
396,-0.293,0.904,0.345,63,0
397,-0.281,0.893,0.334,63,0
398,-0.294,0.915,0.308,63,0
399,-0.326,1.028,0.285,63,0
400,-0.379,1.17,0.281,63,0
401,-0.405,1.165,0.269,63,0
402,-0.334,1.01,0.168,63,0
403,-0.317,1.025,0.144,63,0
404,-0.291,1.035,0.143,63,0
405,-0.266,1.008,0.136,63,0
406,-0.254,0.959,0.127,63,0
407,-0.254,0.912,0.119,63,0
408,-0.261,0.874,0.115,63,0
409,-0.268,0.84,0.123,63,0
410,-0.266,0.807,0.145,63,0
411,-0.257,0.781,0.167,63,0
412,-0.252,0.792,0.189,63,0
413,-0.248,0.854,0.199,63,0
414,-0.235,0.987,0.173,63,0
415,-0.225,1.216,0.115,63,0
416,-0.225,1.355,0.066,63,0
417,-0.221,1.251,0.092,63,0
418,-0.197,1.083,0.157,63,0
419,-0.179,0.999,0.159,63,0
420,-0.199,0.962,0.127,63,0
421,-0.25,0.929,0.13,63,0
422,-0.301,0.884,0.169,63,0
423,-0.321,0.84,0.208,63,0
424,-0.318,0.834,0.229,63,0
425,-0.311,0.858,0.248,63,0
426,-0.309,0.885,0.27,63,0
427,-0.306,0.899,0.295,63,0
428,-0.294,0.891,0.322,63,0
429,-0.274,0.888,0.334,63,0
430,-0.265,0.916,0.324,63,0
431,-0.279,0.992,0.297,63,0
432,-0.311,1.138,0.278,63,0
433,-0.343,1.205,0.284,63,0
434,-0.339,1.099,0.275,63,0
435,-0.302,1.008,0.222,63,0
436,-0.288,1.02,0.174,63,0
437,-0.304,1.047,0.167,63,0
438,-0.309,1.012,0.171,63,0
439,-0.296,0.939,0.167,63,0
440,-0.289,0.875,0.161,63,0
441,-0.289,0.833,0.154,63,0
442,-0.286,0.807,0.161,63,0
443,-0.296,0.785,0.181,63,0
444,-0.319,0.78,0.195,63,0
445,-0.335,0.814,0.202,63,0
446,-0.322,0.86,0.204,63,0
447,-0.285,0.888,0.2,63,0
448,-0.254,0.978,0.177,63,0
449,-0.233,1.178,0.125,63,0
450,-0.218,1.262,0.1,63,0
451,-0.21,1.155,0.147,63,0
452,-0.2,1.058,0.192,63,0
453,-0.176,0.997,0.195,63,0
454,-0.15,0.918,0.186,63,0
455,-0.167,0.863,0.188,63,0
456,-0.221,0.86,0.203,63,0
457,-0.261,0.891,0.224,63,0
458,-0.282,0.919,0.249,63,0
459,-0.3,0.922,0.277,63,0
460,-0.31,0.909,0.304,63,0
461,-0.301,0.896,0.319,63,0
462,-0.277,0.892,0.318,63,0
463,-0.257,0.905,0.303,63,0
464,-0.257,0.957,0.277,63,0
465,-0.287,1.09,0.26,63,0
466,-0.334,1.189,0.265,63,0
467,-0.338,1.135,0.249,63,0
468,-0.302,1.038,0.198,63,0
469,-0.285,1.011,0.155,63,0
470,-0.29,1.034,0.127,63,0
471,-0.284,1.037,0.104,63,0
472,-0.269,1.011,0.092,63,0
473,-0.258,0.97,0.088,63,0
474,-0.26,0.91,0.099,63,0
475,-0.271,0.861,0.136,63,0
476,-0.271,0.843,0.164,63,0
477,-0.26,0.831,0.175,63,0
478,-0.263,0.81,0.19,63,0
479,-0.28,0.817,0.211,63,0
480,-0.29,0.882,0.217,63,0
481,-0.276,0.99,0.189,63,0
482,-0.256,1.119,0.145,63,0
483,-0.244,1.232,0.115,63,0
484,-0.244,1.235,0.116,63,0
485,-0.246,1.1,0.148,63,0
486,-0.231,0.965,0.161,63,0
487,-0.211,0.933,0.136,63,0
488,-0.225,0.948,0.12,63,0
489,-0.261,0.941,0.126,63,0
490,-0.289,0.916,0.148,63,0
491,-0.293,0.899,0.177,63,0
492,-0.276,0.894,0.191,63,0
493,-0.27,0.897,0.196,63,0
494,-0.284,0.894,0.218,63,0
495,-0.294,0.873,0.254,63,0
496,-0.293,0.863,0.279,63,0
497,-0.291,0.898,0.281,63,0
498,-0.291,0.972,0.269,63,0
499,-0.312,1.086,0.251,63,0
500,-0.346,1.173,0.247,63,0
501,-0.354,1.139,0.242,63,0
502,-0.335,1.052,0.214,63,0
503,-0.329,1.011,0.177,63,0
504,-0.348,1.019,0.15,63,0
505,-0.353,1.032,0.127,63,0
506,-0.326,1.023,0.11,63,0
507,-0.291,0.994,0.102,63,0
508,-0.273,0.953,0.093,63,0
509,-0.269,0.913,0.093,63,0
510,-0.267,0.875,0.103,63,0
511,-0.267,0.839,0.115,63,0
512,-0.262,0.823,0.133,63,0
513,-0.262,0.843,0.165,63,0
514,-0.261,0.881,0.195,63,0
515,-0.234,0.947,0.191,63,0
516,-0.2,1.079,0.154,63,0
517,-0.195,1.214,0.113,63,0
518,-0.218,1.189,0.118,63,0
519,-0.233,1.045,0.17,63,0
520,-0.208,0.959,0.192,63,0
521,-0.173,0.946,0.17,63,0
522,-0.173,0.94,0.155,63,0
523,-0.21,0.916,0.177,63,0
524,-0.249,0.878,0.218,63,0
525,-0.275,0.858,0.249,63,0
526,-0.294,0.876,0.256,63,0
527,-0.307,0.901,0.262,63,0
528,-0.317,0.902,0.286,63,0
529,-0.314,0.882,0.311,63,0
530,-0.293,0.867,0.31,63,0
531,-0.275,0.889,0.295,63,0
532,-0.28,0.944,0.28,63,0
533,-0.306,1.039,0.264,63,0
534,-0.34,1.154,0.256,63,0
535,-0.361,1.197,0.242,63,0
536,-0.351,1.136,0.208,63,0
537,-0.333,1.039,0.165,63,0
538,-0.326,0.984,0.127,63,0
539,-0.324,0.979,0.103,63,0
540,-0.344,0.984,0.121,63,0
541,-0.37,0.985,0.153,63,0
542,-0.349,0.982,0.161,63,0
543,-0.305,0.959,0.162,63,0
544,-0.295,0.919,0.176,63,0
545,-0.311,0.873,0.193,63,0
546,-0.326,0.822,0.193,63,0
547,-0.34,0.772,0.183,63,0
548,-0.353,0.747,0.173,63,0
549,-0.353,0.769,0.166,63,0
550,-0.331,0.849,0.154,63,0
551,-0.306,0.975,0.121,63,0
552,-0.304,1.102,0.092,63,0
553,-0.325,1.135,0.123,63,0
554,-0.331,1.071,0.185,63,0
555,-0.29,1.025,0.198,63,0
556,-0.229,1.018,0.165,63,0
557,-0.214,1.001,0.153,63,0
558,-0.247,0.96,0.171,63,0
559,-0.278,0.913,0.186,63,0
560,-0.294,0.885,0.194,63,0
561,-0.305,0.883,0.2,63,0
562,-0.313,0.888,0.211,63,0
563,-0.321,0.881,0.233,63,0
564,-0.327,0.869,0.261,63,0
565,-0.313,0.876,0.274,63,0
566,-0.29,0.912,0.265,63,0
567,-0.286,0.977,0.252,63,0
568,-0.307,1.081,0.247,63,0
569,-0.333,1.156,0.245,63,0
570,-0.334,1.128,0.224,63,0
571,-0.313,1.045,0.184,63,0
572,-0.3,0.994,0.142,63,0
573,-0.317,1.006,0.105,63,0
574,-0.385,1.04,0.072,63,0
575,-0.47,1.052,0.062,63,0
576,-0.546,1.043,0.118,63,0
577,-0.614,1.024,0.221,63,0
578,-0.625,0.993,0.313,63,0
579,-0.681,0.949,0.362,63,0
580,-0.785,0.909,0.385,63,0
581,-0.813,0.867,0.383,63,0
582,-0.765,0.799,0.376,63,0
583,-0.564,0.708,0.43,63,0
584,-0.316,0.62,0.504,63,0
585,-0.156,0.575,0.584,63,0
586,-0.043,0.552,0.676,63,0
587,0.03,0.518,0.726,63,0
588,0.076,0.484,0.744,63,0
589,0.121,0.448,0.762,63,0
590,0.149,0.398,0.777,63,0
591,0.182,0.344,0.784,63,0
592,0.222,0.296,0.791,63,0
593,0.244,0.259,0.796,63,0
594,0.281,0.23,0.793,63,0
595,0.307,0.215,0.795,63,0
596,0.316,0.213,0.806,63,0
597,0.34,0.218,0.813,63,0
598,0.358,0.222,0.829,63,0
599,0.37,0.219,0.849,64,0
600,0.38,0.221,0.87,64,0
601,0.36,0.222,0.903,64,0
602,0.329,0.199,0.951,64,0
603,0.304,0.164,1.022,64,0
604,0.252,0.143,1.081,64,0
605,0.213,0.13,1.076,64,0
606,0.183,0.114,1.033,64,0
607,0.142,0.101,0.994,64,0
608,0.121,0.099,0.95,64,0
609,0.105,0.104,0.914,64,0
610,0.108,0.114,0.901,64,0
611,0.132,0.123,0.896,64,0
612,0.163,0.116,0.894,64,0
613,0.194,0.097,0.906,64,0
614,0.209,0.081,0.929,64,0
615,0.211,0.073,0.953,64,0
616,0.206,0.073,0.974,64,0
617,0.189,0.093,0.992,64,0
618,0.175,0.129,1,64,0
619,0.169,0.16,1.002,64,0
620,0.157,0.187,1.018,64,0
621,0.138,0.231,1.039,64,0
622,0.085,0.295,1.051,64,0
623,0.029,0.353,1.047,64,0
624,0.02,0.367,1.006,64,0
625,0.04,0.34,0.972,64,0
626,0.065,0.284,0.976,64,0
627,0.101,0.213,0.966,64,0
628,0.144,0.158,0.919,64,0
629,0.173,0.125,0.866,64,0
630,0.198,0.097,0.849,64,0
631,0.216,0.075,0.858,64,0
632,0.239,0.054,0.888,64,0
633,0.293,0.041,0.936,64,0
634,0.321,0.044,0.969,64,0
635,0.186,0.049,0.958,64,0
636,-0.049,0.025,0.949,64,0
637,-0.191,-0.02,0.962,64,0
638,-0.306,-0.044,0.944,64,0
639,-0.479,-0.061,0.881,64,0
640,-0.627,-0.1,0.785,64,0
641,-0.731,-0.17,0.666,64,0
642,-0.753,-0.237,0.568,64,0
643,-0.702,-0.256,0.495,64,0
644,-0.736,-0.239,0.445,64,0
645,-0.843,-0.222,0.476,64,0
646,-0.869,-0.235,0.527,64,0
647,-0.829,-0.258,0.516,64,0
648,-0.812,-0.252,0.485,64,0
649,-0.809,-0.234,0.447,64,0
650,-0.82,-0.225,0.405,64,0
651,-0.871,-0.196,0.394,64,0
652,-0.914,-0.123,0.417,64,0
653,-0.911,-0.055,0.429,64,0
654,-0.938,-0.013,0.424,64,0
655,-1.045,0.054,0.412,64,0
656,-1.139,0.148,0.399,64,0
657,-1.1,0.191,0.413,64,0
658,-0.984,0.168,0.42,64,0
659,-0.883,0.135,0.393,64,0
660,-0.814,0.116,0.355,64,0
661,-0.771,0.092,0.322,64,0
662,-0.744,0.059,0.308,64,0
663,-0.767,0.041,0.337,64,0
664,-0.846,0.041,0.374,64,0
665,-0.919,0.04,0.389,64,0
666,-0.925,0.028,0.416,64,0
667,-0.886,0.002,0.441,64,0
668,-0.854,-0.028,0.436,64,0
669,-0.872,-0.033,0.407,64,0
670,-0.973,0,0.376,64,0
671,-1.143,0.065,0.365,64,0
672,-1.25,0.128,0.37,64,0
673,-1.204,0.152,0.365,64,0
674,-1.061,0.129,0.355,64,0
675,-0.93,0.071,0.327,64,0
676,-0.888,0.028,0.293,64,0
677,-0.913,0.039,0.286,64,0
678,-0.944,0.087,0.294,64,0
679,-0.928,0.119,0.303,64,0
680,-0.866,0.12,0.311,64,0
681,-0.817,0.117,0.31,64,0
682,-0.8,0.125,0.31,64,0
683,-0.788,0.142,0.327,64,0
684,-0.793,0.165,0.354,64,0
685,-0.788,0.198,0.367,64,0
686,-0.718,0.239,0.352,64,0
687,-0.62,0.29,0.305,64,0
688,-0.566,0.422,0.249,64,0
689,-0.544,0.641,0.207,64,0
690,-0.504,0.843,0.189,64,0
691,-0.462,1.003,0.183,64,0
692,-0.431,1.144,0.157,64,0
693,-0.41,1.254,0.133,64,0
694,-0.4,1.281,0.138,64,0
695,-0.379,1.209,0.17,64,0
696,-0.345,1.104,0.203,64,0
697,-0.312,1.019,0.219,64,0
698,-0.294,0.968,0.224,64,0
699,-0.309,0.932,0.229,64,0
700,-0.343,0.892,0.243,64,0
701,-0.369,0.861,0.265,64,0
702,-0.381,0.875,0.282,64,0
703,-0.379,0.94,0.278,64,0
704,-0.391,1.078,0.265,64,0
705,-0.417,1.226,0.263,64,0
706,-0.415,1.214,0.254,64,0
707,-0.371,1.088,0.221,64,0
708,-0.331,1.014,0.176,64,0
709,-0.321,1.009,0.142,65,0
710,-0.316,1.009,0.127,65,0
711,-0.3,0.987,0.122,65,0
712,-0.279,0.955,0.117,65,0
713,-0.27,0.926,0.11,65,0
714,-0.277,0.902,0.099,65,0
715,-0.284,0.875,0.101,65,0
716,-0.278,0.836,0.113,65,0
717,-0.274,0.805,0.117,65,0
718,-0.284,0.817,0.128,65,0
719,-0.293,0.867,0.144,65,0
720,-0.288,0.944,0.152,65,0
721,-0.27,1.081,0.145,65,0
722,-0.25,1.177,0.142,65,0
723,-0.214,1.14,0.17,65,0
724,-0.163,1.067,0.182,65,0
725,-0.141,1.031,0.154,65,0
726,-0.168,1.012,0.139,65,0
727,-0.216,0.979,0.158,65,0
728,-0.249,0.921,0.171,65,0
729,-0.27,0.865,0.167,65,0
730,-0.281,0.844,0.165,65,0
731,-0.284,0.855,0.165,65,0
732,-0.292,0.869,0.184,65,0
733,-0.313,0.869,0.243,65,0
734,-0.342,0.869,0.313,65,0
735,-0.34,0.899,0.357,65,0
736,-0.306,0.955,0.369,65,0
737,-0.276,1.054,0.346,65,0
738,-0.287,1.176,0.317,65,0
739,-0.329,1.197,0.319,65,0
740,-0.345,1.116,0.315,65,0
741,-0.34,1.043,0.268,65,0
742,-0.357,1.027,0.205,65,0
743,-0.381,1.03,0.161,65,0
744,-0.367,1.013,0.133,65,0
745,-0.327,0.983,0.119,65,0
746,-0.305,0.95,0.108,65,0
747,-0.307,0.906,0.096,65,0
748,-0.318,0.854,0.096,65,0
749,-0.335,0.806,0.115,65,0
750,-0.354,0.771,0.141,65,0
751,-0.357,0.777,0.166,65,0
752,-0.329,0.816,0.191,65,0
753,-0.276,0.888,0.192,65,0
754,-0.234,1.043,0.159,65,0
755,-0.236,1.188,0.13,65,0
756,-0.252,1.184,0.165,65,0
757,-0.218,1.08,0.215,65,0
758,-0.167,1.01,0.202,65,0
759,-0.177,0.998,0.174,66,0
760,-0.246,0.991,0.202,66,0
761,-0.336,0.962,0.284,66,0
762,-0.408,0.913,0.319,66,0
763,-0.467,0.862,0.29,66,0
764,-0.494,0.828,0.258,66,0
765,-0.469,0.815,0.237,66,0
766,-0.429,0.801,0.237,66,0
767,-0.402,0.783,0.248,66,0
768,-0.385,0.802,0.254,66,0
769,-0.372,0.884,0.25,68,0
770,-0.376,1.061,0.232,68,0
771,-0.405,1.231,0.21,68,0
772,-0.423,1.221,0.193,68,0
773,-0.413,1.085,0.174,68,0
774,-0.406,0.988,0.148,68,0
775,-0.409,0.957,0.14,68,0
776,-0.404,0.928,0.149,68,0
777,-0.396,0.884,0.158,68,0
778,-0.411,0.841,0.16,68,0
779,-0.439,0.809,0.158,69,0
780,-0.457,0.784,0.164,69,0
781,-0.463,0.749,0.175,69,0
782,-0.46,0.721,0.185,69,0
783,-0.451,0.729,0.188,69,0
784,-0.434,0.789,0.166,69,0
785,-0.414,0.915,0.135,69,0
786,-0.401,1.098,0.119,69,0
787,-0.393,1.205,0.143,69,0
788,-0.385,1.148,0.2,69,0
789,-0.344,1.059,0.23,71,0
790,-0.27,1.007,0.225,71,0
791,-0.224,0.947,0.211,71,0
792,-0.226,0.869,0.21,71,0
793,-0.227,0.801,0.186,71,0
794,-0.255,0.759,0.138,71,0
795,-0.378,0.755,0.177,71,0
796,-0.468,0.767,0.272,71,0
797,-0.5,0.759,0.343,71,0
798,-0.55,0.73,0.364,71,0
799,-0.595,0.714,0.335,73,0
800,-0.636,0.735,0.33,73,0
801,-0.668,0.776,0.345,73,0
802,-0.701,0.844,0.321,73,0
803,-0.783,0.949,0.278,73,0
804,-0.804,1.01,0.274,73,0
805,-0.687,0.98,0.261,73,0
806,-0.636,0.935,0.21,73,0
807,-0.646,0.923,0.226,73,0
808,-0.562,0.916,0.329,73,0
809,-0.462,0.897,0.426,74,0
810,-0.379,0.866,0.48,74,0
811,-0.274,0.828,0.553,74,0
812,-0.208,0.801,0.658,74,0
813,-0.19,0.773,0.698,74,0
814,-0.164,0.721,0.704,74,0
815,-0.12,0.661,0.75,74,0
816,-0.047,0.588,0.767,74,0
817,0.019,0.499,0.755,74,0
818,0.044,0.428,0.755,74,0
819,0.071,0.391,0.782,76,0
820,0.07,0.395,0.838,76,0
821,0.066,0.431,0.886,76,0
822,0.103,0.456,0.875,76,0
823,0.144,0.453,0.847,76,0
824,0.175,0.443,0.837,76,0
825,0.218,0.432,0.808,76,0
826,0.298,0.435,0.766,76,0
827,0.279,0.457,0.664,76,0
828,0.095,0.462,0.506,76,0
829,-0.197,0.41,0.398,77,0
830,-0.543,0.323,0.34,77,0
831,-0.833,0.239,0.303,77,0
832,-0.998,0.161,0.333,77,0
833,-1.065,0.085,0.369,77,0
834,-1.089,0.036,0.354,77,0
835,-1.039,0.02,0.349,77,0
836,-0.94,0.015,0.339,77,0
837,-0.889,0.037,0.248,77,0
838,-0.997,0.109,0.128,77,0
839,-1.11,0.193,0.11,79,0
840,-1.029,0.227,0.183,79,0
841,-0.912,0.193,0.229,79,0
842,-0.947,0.141,0.229,79,0
843,-0.936,0.141,0.313,79,0
844,-0.723,0.208,0.515,79,0
845,-0.513,0.291,0.7,79,0
846,-0.483,0.337,0.775,79,0
847,-0.574,0.339,0.764,79,0
848,-0.621,0.317,0.747,79,0
849,-0.604,0.3,0.746,80,0
850,-0.626,0.294,0.729,80,0
851,-0.719,0.322,0.716,80,0
852,-0.769,0.402,0.724,80,0
853,-0.724,0.496,0.707,80,0
854,-0.68,0.565,0.667,80,0
855,-0.694,0.618,0.637,80,0
856,-0.694,0.643,0.6,80,0
857,-0.61,0.631,0.533,80,0
858,-0.495,0.592,0.454,80,0
859,-0.42,0.539,0.385,81,0
860,-0.375,0.496,0.312,81,0
861,-0.34,0.487,0.267,81,0
862,-0.312,0.525,0.266,81,0
863,-0.291,0.607,0.258,81,0
864,-0.307,0.742,0.241,81,0
865,-0.36,0.936,0.254,81,0
866,-0.417,1.127,0.29,81,0
867,-0.44,1.214,0.327,81,0
868,-0.418,1.184,0.35,81,0
869,-0.364,1.133,0.372,82,0
870,-0.325,1.112,0.389,82,0
871,-0.349,1.136,0.377,82,0
872,-0.407,1.187,0.346,82,0
873,-0.463,1.179,0.317,82,0
874,-0.484,1.127,0.285,82,0
875,-0.508,1.106,0.257,82,0
876,-0.598,1.132,0.247,82,0
877,-0.656,1.163,0.253,82,0
878,-0.66,1.118,0.256,82,0
879,-0.696,1.01,0.296,82,0
880,-0.743,0.851,0.332,82,0
881,-0.83,0.593,0.352,82,0
882,-0.873,0.219,0.43,82,0
883,-0.912,-0.04,0.438,82,0
884,-0.96,0.055,0.469,82,0
885,-0.922,0.281,0.568,82,0
886,-0.995,0.377,0.546,82,0
887,-1.083,0.305,0.354,82,0
888,-0.956,0.024,0.093,82,0
889,-0.797,-0.345,-0.067,83,0
890,-0.69,-0.619,-0.107,83,0
891,-0.517,-0.731,-0.057,83,0
892,-0.359,-0.781,0.108,83,0
893,-0.283,-0.831,0.26,83,0
894,-0.208,-0.781,0.307,83,0
895,-0.095,-0.639,0.351,83,0
896,-0.028,-0.46,0.481,83,0
897,-0.1,-0.24,0.663,83,0
898,-0.141,-0.09,0.719,83,0
899,-0.058,-0.153,0.506,83,0
900,0.001,-0.371,0.114,83,0
901,-0.008,-0.629,-0.19,83,0
902,-0.092,-0.742,-0.174,83,0
903,-0.186,-0.564,0.098,83,0
904,-0.285,-0.078,0.369,83,0
905,-0.491,0.473,0.462,83,0
906,-0.688,0.826,0.399,83,0
907,-0.673,0.953,0.5,83,0
908,-0.548,0.96,0.745,83,0
909,-0.485,1.047,0.882,84,0
910,-0.614,1.227,0.882,84,0
911,-0.884,1.347,0.83,84,0
912,-0.884,1.312,0.811,84,0
913,-0.682,1.146,0.787,84,0
914,-0.588,0.938,0.674,84,0
915,-0.506,0.819,0.484,84,0
916,-0.413,0.811,0.347,84,0
917,-0.358,0.876,0.295,84,0
918,-0.309,0.946,0.288,84,0
919,-0.262,0.934,0.326,84,0
920,-0.235,0.918,0.348,84,0
921,-0.183,1.016,0.279,84,0
922,-0.133,1.164,0.219,84,0
923,-0.129,1.202,0.262,84,0
924,-0.12,1.134,0.293,84,0
925,-0.102,1.057,0.264,84,0
926,-0.131,0.984,0.238,84,0
927,-0.201,0.901,0.241,84,0
928,-0.28,0.84,0.275,84,0
929,-0.36,0.804,0.34,82,0
930,-0.267,0.769,0.397,82,0
931,-0.069,0.745,0.406,82,0
932,-0.06,0.743,0.399,82,0
933,-0.113,0.749,0.444,82,0
934,-0.092,0.768,0.523,82,0
935,-0.067,0.802,0.541,82,0
936,-0.077,0.837,0.526,82,0
937,-0.155,0.906,0.545,82,0
938,-0.197,1.053,0.542,82,0
939,-0.15,1.138,0.485,83,0
940,-0.117,1.043,0.458,83,0
941,-0.041,0.957,0.47,83,0
942,0.073,0.941,0.481,83,0
943,0.1,0.893,0.489,83,0
944,0.04,0.838,0.487,83,0
945,-0.061,0.798,0.451,83,0
946,-0.191,0.755,0.392,83,0
947,-0.295,0.72,0.369,83,0
948,-0.384,0.703,0.366,83,0
949,-0.62,0.75,0.354,83,0
950,-0.995,0.852,0.294,83,0
951,-1.32,0.885,0.143,83,0
952,-1.56,0.75,-0.063,83,0
953,-1.594,0.468,-0.2,83,0
954,-1.401,0.133,-0.317,83,0
955,-1.133,-0.12,-0.438,83,0
956,-0.841,-0.238,-0.456,83,0
957,-0.66,-0.273,-0.42,83,0
958,-0.498,-0.272,-0.342,83,0
959,-0.314,-0.286,-0.238,84,0
960,-0.183,-0.305,-0.058,84,0
961,-0.126,-0.336,0.2,84,0
962,-0.268,-0.462,0.297,84,0
963,-0.35,-0.625,0.327,84,0
964,-0.318,-0.711,0.413,84,0
965,-0.285,-0.754,0.474,84,0
966,-0.267,-0.835,0.437,84,0
967,-0.338,-0.947,0.397,84,0
968,-0.411,-0.985,0.427,84,0
969,-0.404,-0.903,0.473,84,0
970,-0.217,-0.786,0.605,84,0
971,-0.078,-0.728,0.714,84,0
972,-0.068,-0.707,0.732,84,0
973,0.01,-0.678,0.704,84,0
974,-0.031,-0.643,0.625,84,0
975,-0.249,-0.606,0.599,84,0
976,-0.362,-0.612,0.589,84,0
977,-0.228,-0.688,0.515,84,0
978,0.002,-0.75,0.46,84,0
979,0.171,-0.762,0.45,84,0
980,0.129,-0.742,0.467,84,0
981,0.067,-0.705,0.488,84,0
982,0.146,-0.682,0.52,84,0
983,0.166,-0.691,0.632,84,0
984,0.171,-0.67,0.865,84,0
985,0.105,-0.603,1.053,84,0
986,0.042,-0.51,1.174,84,0
987,0.075,-0.417,1.18,84,0
988,0.017,-0.337,1.108,84,0
989,-0.058,-0.215,1.06,85,0
990,0.042,-0.161,0.999,85,0
991,0.225,-0.165,0.961,85,0
992,0.359,-0.167,0.912,85,0
993,0.425,-0.218,0.888,85,0
994,0.42,-0.312,0.932,85,0
995,0.434,-0.421,0.955,85,0
996,0.479,-0.501,0.973,85,0
997,0.521,-0.611,0.982,85,0
998,0.629,-0.777,0.855,85,0
999,0.631,-0.854,0.706,85,0
1000,0.45,-0.814,0.633,85,0
1001,0.479,-0.68,0.644,85,0
1002,0.536,-0.438,0.528,85,0
1003,0.221,-0.413,0.318,85,0
1004,-0.009,-0.683,0.239,85,0
1005,0.106,-0.915,0.086,85,0
1006,0.689,-0.902,-0.218,85,0
1007,1.216,-0.598,-0.21,85,0
1008,1.02,-0.209,0.418,85,0
1009,0.814,-0.093,0.809,85,0
1010,0.913,-0.208,0.525,85,0
1011,0.873,-0.281,0.132,85,0
1012,0.506,-0.186,-0.104,85,0
1013,-0.087,-0.004,0.149,85,0
1014,-0.25,-0.017,0.565,85,0
1015,0.012,-0.27,0.627,85,0
1016,0.231,-0.43,0.697,85,0
1017,0.481,-0.427,0.638,85,0
1018,0.622,-0.251,0.472,85,0
1019,0.568,0.117,0.483,86,0
1020,0.26,0.502,0.63,86,0
1021,-0.25,0.728,0.918,86,0
1022,-0.553,0.71,1.323,86,0
1023,-0.522,0.626,1.513,86,0
1024,-0.53,0.609,1.419,86,0
1025,-0.468,0.586,1.479,86,0
1026,-0.323,0.497,1.496,86,0
1027,-0.284,0.437,1.249,86,0
1028,-0.098,0.445,1.087,86,0
1029,0.148,0.473,1.195,86,0
1030,0.357,0.473,1.323,86,0
1031,0.426,0.385,1.215,86,0
1032,0.2,0.227,0.972,86,0
1033,0.021,0.108,0.654,86,0
1034,-0.216,-0.001,0.249,86,0
1035,-0.649,-0.059,0.037,86,0
1036,-0.904,0.025,-0.109,86,0
1037,-1.121,0.204,-0.384,86,0
1038,-1.137,0.173,-0.489,86,0
1039,-0.789,-0.243,-0.365,86,0
1040,-0.444,-0.698,-0.19,86,0
1041,-0.293,-0.898,0.024,86,0
1042,-0.369,-0.864,0.2,86,0
1043,-0.586,-0.684,0.267,86,0
1044,-0.858,-0.473,0.333,86,0
1045,-1.032,-0.368,0.289,86,0
1046,-1.019,-0.37,0.132,86,0
1047,-0.897,-0.416,0.031,86,0
1048,-0.827,-0.405,-0.032,86,0
1049,-0.922,-0.222,-0.035,86,0
1050,-1.045,0.079,0.088,86,0
1051,-1.162,0.231,0.103,86,0
1052,-1.221,0.259,0.089,86,0
1053,-1.046,0.312,0.292,86,0
1054,-0.892,0.576,0.413,86,0
1055,-0.797,0.479,0.528,86,0
1056,-0.479,0.276,0.702,86,0
1057,-0.104,0.463,0.83,86,0
1058,0.06,0.568,0.886,86,0
1059,0.227,0.688,0.925,86,0
1060,0.266,0.806,1.026,86,0
1061,0.225,0.749,1.094,86,0
1062,0.186,0.387,1.093,86,0
1063,0.173,-0.077,1.002,86,0
1064,0.265,-0.605,0.888,86,0
1065,0.322,-0.931,0.798,86,0
1066,0.354,-0.867,0.837,86,0
1067,0.231,-0.669,0.99,86,0
1068,0.131,-0.357,1.1,86,0
1069,0.211,-0.063,1.079,86,0
1070,0.369,0.018,0.955,86,0
1071,0.486,-0.013,0.821,86,0
1072,0.525,-0.039,0.732,86,0
1073,0.483,0.012,0.751,86,0
1074,0.409,0.124,0.729,86,0
1075,0.312,0.213,0.634,86,0
1076,0.252,0.226,0.658,86,0
1077,0.223,0.254,0.812,86,0
1078,0.178,0.297,0.994,86,0
1079,0.066,0.274,1.015,86,0
1080,-0.29,0.209,0.767,86,0
1081,-0.772,0.135,0.53,86,0
1082,-1.049,0.143,0.492,86,0
1083,-1.136,0.21,0.599,86,0
1084,-1.111,0.257,0.785,86,0
1085,-1.01,0.229,0.876,86,0
1086,-0.951,0.076,0.796,86,0
1087,-0.864,-0.179,0.601,86,0
1088,-0.732,-0.399,0.38,86,0
1089,-0.607,-0.439,0.308,86,0
1090,-0.575,-0.28,0.357,86,0
1091,-0.596,-0.033,0.633,86,0
1092,-0.613,0.06,0.85,86,0
1093,-0.523,-0.006,0.784,86,0
1094,-0.441,-0.154,0.802,86,0
1095,-0.611,-0.295,0.863,86,0
1096,-0.823,-0.287,0.96,86,0
1097,-0.924,-0.254,0.968,86,0
1098,-0.845,-0.24,0.701,86,0
1099,-0.735,-0.21,0.463,86,0
1100,-0.566,-0.233,0.521,86,0
1101,-0.295,-0.248,0.778,86,0
1102,-0.168,-0.228,1.014,86,0
1103,-0.232,-0.224,0.915,86,0
1104,-0.476,-0.173,0.854,86,0
1105,-0.813,-0.122,0.949,86,0
1106,-1.096,-0.152,0.835,86,0
1107,-1.15,-0.222,0.634,86,0
1108,-1.065,-0.313,0.418,86,0
1109,-1.01,-0.402,0.271,85,0
1110,-0.91,-0.473,0.27,85,0
1111,-0.762,-0.516,0.383,85,0
1112,-0.671,-0.544,0.611,85,0
1113,-0.595,-0.586,0.833,85,0
1114,-0.558,-0.727,0.885,85,0
1115,-0.626,-0.854,0.793,85,0
1116,-0.64,-0.801,0.677,85,0
1117,-0.472,-0.627,0.663,85,0
1118,-0.171,-0.366,0.833,85,0
1119,0.072,-0.079,1.076,83,0
1120,-0.1,0.201,1.026,83,0
1121,-0.707,0.395,0.596,83,0
1122,-1.245,0.379,0.192,83,0
1123,-1.567,0.18,0.127,83,0
1124,-1.568,-0.04,0.294,83,0
1125,-0.902,-0.143,0.454,83,0
1126,-0.105,-0.318,0.425,83,0
1127,0.181,-0.728,0.221,83,0
1128,-0.099,-1.109,-0.062,83,0
1129,-0.49,-1.189,-0.125,82,0
1130,-0.468,-1.052,0.155,82,0
1131,-0.155,-0.879,0.499,82,0
1132,-0.177,-0.782,0.667,82,0
1133,-0.506,-0.622,0.804,82,0
1134,-0.664,-0.329,1.011,82,0
1135,-0.808,-0.187,0.981,82,0
1136,-0.891,-0.255,0.763,82,0
1137,-0.858,-0.445,0.539,82,0
1138,-0.798,-0.666,0.252,82,0
1139,-0.699,-0.817,-0.063,80,0
1140,-0.61,-0.792,-0.268,80,0
1141,-0.668,-0.577,-0.27,80,0
1142,-0.969,-0.315,-0.143,80,0
1143,-1.382,-0.162,-0.085,80,0
1144,-1.513,-0.079,-0.257,80,0
1145,-1.319,0.042,-0.51,80,0
1146,-1.156,0.189,-0.659,80,0
1147,-1.022,0.251,-0.677,80,0
1148,-0.884,0.176,-0.528,80,0
1149,-0.841,0.044,-0.303,78,0
1150,-0.871,-0.106,-0.122,78,0
1151,-0.931,-0.251,-0.032,78,0
1152,-0.991,-0.342,0.015,78,0
1153,-1.023,-0.398,0.078,78,0
1154,-0.998,-0.453,0.128,78,0
1155,-0.971,-0.488,0.142,78,0
1156,-0.985,-0.489,0.13,78,0
1157,-1.003,-0.47,0.089,78,0
1158,-0.992,-0.43,0.046,78,0
1159,-0.991,-0.381,0.01,77,0
1160,-1.077,-0.319,-0.048,77,0
1161,-1.278,-0.092,-0.106,77,0
1162,-1.385,0.296,-0.16,77,0
1163,-1.277,0.529,-0.148,77,0
1164,-1.108,0.508,-0.049,77,0
1165,-1,0.385,0.004,77,0
1166,-0.974,0.263,0.008,77,0
1167,-0.964,0.186,0.025,77,0
1168,-0.944,0.124,0.051,77,0
1169,-0.942,0.048,0.061,75,0
1170,-0.946,-0.019,0.055,75,0
1171,-0.949,-0.052,0.04,75,0
1172,-0.954,-0.061,0.028,75,0
1173,-0.961,-0.055,0.043,75,0
1174,-0.939,0,0.071,75,0
1175,-0.899,0.118,0.112,75,0
1176,-0.904,0.269,0.198,75,0
1177,-0.911,0.407,0.269,75,0
1178,-0.989,0.512,0.264,75,0
1179,-1.093,0.583,0.212,74,0
1180,-1.143,0.601,0.115,74,0
1181,-1.162,0.556,0.012,74,0
1182,-1.089,0.443,-0.027,74,0
1183,-0.997,0.307,-0.032,74,0
1184,-0.913,0.192,-0.034,74,0
1185,-0.84,0.104,-0.04,74,0
1186,-0.763,0.033,-0.041,74,0
1187,-0.725,-0.043,-0.043,74,0
1188,-0.743,-0.101,-0.063,74,0
1189,-0.759,-0.091,-0.144,73,0
1190,-0.801,-0.036,-0.214,73,0
1191,-0.825,0.015,-0.177,73,0
1192,-0.774,0.03,-0.101,73,0
1193,-0.785,0.07,-0.163,73,0
1194,-0.89,0.114,-0.374,73,0
1195,-1.027,0.109,-0.537,73,0
1196,-1.135,0.223,-0.559,73,0
1197,-1.05,0.425,-0.358,73,0
1198,-0.715,0.518,0.013,73,0
1199,-0.542,0.54,0.296,72,0
1200,-0.788,0.557,0.387,72,0
1201,-0.846,0.544,0.404,72,0
1202,-0.742,0.521,0.476,72,0
1203,-0.77,0.505,0.54,72,0
1204,-0.808,0.55,0.527,72,0
1205,-0.821,0.639,0.487,72,0
1206,-0.746,0.682,0.402,72,0
1207,-0.657,0.701,0.371,72,0
1208,-0.579,0.727,0.361,72,0
1209,-0.612,0.768,0.273,71,0
1210,-0.679,0.828,0.166,71,0
1211,-0.727,0.893,0.088,71,0
1212,-0.81,0.89,-0.004,71,0
1213,-0.788,0.782,-0.131,71,0
1214,-0.651,0.653,-0.15,71,0
1215,-0.532,0.621,-0.074,71,0
1216,-0.531,0.763,-0.027,71,0
1217,-0.509,1.04,-0.016,71,0
1218,-0.414,1.237,0,71,0
1219,-0.413,1.22,0.062,70,0
1220,-0.445,1.05,0.048,70,0
1221,-0.433,0.814,-0.122,70,0
1222,-0.497,0.598,-0.282,70,0
1223,-0.617,0.408,-0.327,70,0
1224,-0.795,0.214,-0.202,70,0
1225,-1.008,0.139,0.063,70,0
1226,-1.158,0.379,0.204,70,0
1227,-1.236,0.956,0.138,70,0
1228,-1.204,1.376,0.009,70,0
1229,-1.023,1.299,-0.006,70,0
1230,-0.794,1.031,0.07,70,0
1231,-0.817,0.854,0.05,70,0
1232,-0.966,0.811,0.016,70,0
1233,-1.021,0.814,0.079,70,0
1234,-0.986,0.831,0.218,70,0
1235,-0.835,0.84,0.321,70,0
1236,-0.629,0.833,0.366,70,0
1237,-0.409,0.811,0.435,70,0
1238,-0.252,0.742,0.484,70,0
1239,-0.143,0.66,0.534,69,0
1240,-0.066,0.59,0.624,69,0
1241,-0.023,0.529,0.712,69,0
1242,0.027,0.488,0.791,69,0
1243,0.086,0.459,0.875,69,0
1244,0.121,0.445,0.95,69,0
1245,0.111,0.452,1.005,69,0
1246,0.095,0.451,1.013,69,0
1247,0.093,0.414,0.969,69,0
1248,0.094,0.344,0.912,69,0
1249,0.121,0.266,0.859,69,0
1250,0.164,0.197,0.824,69,0
1251,0.199,0.15,0.811,69,0
1252,0.219,0.132,0.814,69,0
1253,0.212,0.148,0.842,69,0
1254,0.208,0.178,0.876,69,0
1255,0.23,0.202,0.898,69,0
1256,0.261,0.208,0.902,69,0
1257,0.293,0.196,0.888,69,0
1258,0.31,0.175,0.883,69,0
1259,0.293,0.161,0.907,69,0
1260,0.254,0.169,0.955,69,0
1261,0.196,0.189,1.03,69,0
1262,0.134,0.199,1.084,69,0
1263,0.086,0.165,1.05,69,0
1264,0.041,0.093,0.992,69,0
1265,0.004,0.034,0.968,69,0
1266,-0.038,0.018,0.963,69,0
1267,-0.077,0.036,0.963,69,0
1268,-0.082,0.063,0.938,69,0
1269,-0.056,0.073,0.883,69,0
1270,-0.011,0.06,0.842,69,0
1271,0.023,0.043,0.853,69,0
1272,0.035,0.045,0.91,69,0
1273,0.035,0.072,0.976,69,0
1274,0.026,0.102,1.034,69,0
1275,0.014,0.119,1.063,69,0
1276,0.001,0.134,1.044,69,0
1277,-0.018,0.166,1,69,0
1278,-0.077,0.208,0.934,69,0
1279,-0.175,0.287,0.896,69,0
1280,-0.28,0.414,0.948,69,0
1281,-0.368,0.485,0.978,69,0
1282,-0.434,0.45,0.918,69,0
1283,-0.466,0.37,0.865,69,0
1284,-0.452,0.304,0.844,69,0
1285,-0.441,0.266,0.832,69,0
1286,-0.442,0.228,0.821,69,0
1287,-0.429,0.184,0.807,69,0
1288,-0.429,0.144,0.803,69,0
1289,-0.447,0.102,0.83,69,0
1290,-0.47,0.069,0.869,69,0
1291,-0.488,0.056,0.885,69,0
1292,-0.506,0.053,0.88,69,0
1293,-0.544,0.07,0.875,69,0
1294,-0.611,0.109,0.856,69,0
1295,-0.607,0.149,0.839,69,0
1296,-0.584,0.196,0.83,69,0
1297,-0.604,0.273,0.802,69,0
1298,-0.538,0.349,0.779,69,0
1299,-0.463,0.397,0.745,69,0
1300,-0.453,0.45,0.657,69,0
1301,-0.465,0.524,0.542,69,0
1302,-0.484,0.611,0.426,69,0
1303,-0.508,0.687,0.333,69,0
1304,-0.549,0.727,0.265,69,0
1305,-0.557,0.742,0.226,69,0
1306,-0.506,0.772,0.238,69,0
1307,-0.449,0.829,0.264,69,0
1308,-0.433,0.918,0.29,69,0
1309,-0.433,1.008,0.294,69,0
1310,-0.418,1.088,0.265,69,0
1311,-0.406,1.192,0.234,69,0
1312,-0.399,1.263,0.208,69,0
1313,-0.374,1.187,0.198,69,0
1314,-0.336,1.047,0.213,69,0
1315,-0.294,0.977,0.185,69,0
1316,-0.27,0.955,0.111,69,0
1317,-0.284,0.929,0.078,69,0
1318,-0.313,0.878,0.074,69,0
1319,-0.333,0.837,0.101,69,0
1320,-0.321,0.804,0.148,69,0
1321,-0.309,0.774,0.184,69,0
1322,-0.319,0.759,0.223,69,0
1323,-0.343,0.739,0.256,69,0
1324,-0.394,0.728,0.268,69,0
1325,-0.472,0.76,0.248,69,0
1326,-0.587,0.855,0.204,69,0
1327,-0.692,1.013,0.16,69,0
1328,-0.739,1.141,0.128,69,0
1329,-0.728,1.146,0.109,69,0
1330,-0.698,1.078,0.093,69,0
1331,-0.696,1.019,0.076,69,0
1332,-0.734,0.996,0.075,69,0
1333,-0.808,0.988,0.099,69,0
1334,-0.914,0.977,0.169,69,0
1335,-0.985,0.935,0.274,69,0
1336,-0.908,0.807,0.365,69,0
1337,-0.683,0.592,0.422,69,0
1338,-0.422,0.374,0.442,69,0
1339,-0.249,0.228,0.458,69,0
1340,-0.202,0.132,0.484,69,0
1341,-0.228,0.073,0.533,69,0
1342,-0.248,0.06,0.589,69,0
1343,-0.249,0.059,0.641,69,0
1344,-0.308,0.092,0.764,69,0
1345,-0.361,0.156,0.913,69,0
1346,-0.344,0.17,0.974,69,0
1347,-0.331,0.111,0.997,69,0
1348,-0.285,0.03,1.034,69,0
1349,-0.194,-0.014,1.037,69,0
1350,-0.129,-0.029,1.009,69,0
1351,-0.091,-0.035,0.976,69,0
1352,-0.067,-0.026,0.94,69,0
1353,-0.047,-0.006,0.919,69,0
1354,-0.015,0.018,0.914,69,0
1355,0.033,0.031,0.907,69,0
1356,0.088,0.034,0.907,69,0
1357,0.104,0.025,0.924,69,0
1358,0.081,-0.033,0.966,69,0
1359,0.033,-0.103,1.056,69,0
1360,-0.023,-0.119,1.161,69,0
1361,-0.062,-0.113,1.2,69,0
1362,-0.085,-0.142,1.152,69,0
1363,-0.096,-0.169,1.079,69,0
1364,-0.09,-0.148,1.02,69,0
1365,-0.063,-0.108,0.968,69,0
1366,-0.015,-0.08,0.925,69,0
1367,0.046,-0.065,0.886,69,0
1368,0.108,-0.061,0.854,69,0
1369,0.154,-0.06,0.847,69,0
1370,0.186,-0.055,0.862,69,0
1371,0.198,-0.043,0.892,69,0
1372,0.2,-0.027,0.93,69,0
1373,0.21,-0.012,0.953,69,0
1374,0.226,0.015,0.971,69,0
1375,0.247,0.064,0.989,69,0
1376,0.243,0.142,1.027,69,0
1377,0.206,0.247,1.056,69,0
1378,0.169,0.329,1.033,69,0
1379,0.139,0.356,0.979,69,0
1380,0.114,0.346,0.92,69,0
1381,0.079,0.32,0.883,69,0
1382,0.028,0.298,0.865,69,0
1383,-0.026,0.269,0.841,69,0
1384,-0.083,0.196,0.814,69,0
1385,-0.128,0.096,0.813,69,0
1386,-0.165,-0.008,0.85,69,0
1387,-0.182,-0.087,0.902,69,0
1388,-0.167,-0.117,0.939,69,0
1389,-0.174,-0.119,0.974,69,0
1390,-0.199,-0.106,1.003,69,0
1391,-0.217,-0.069,1.005,69,0
1392,-0.219,-0.023,0.96,69,0
1393,-0.242,0.015,0.865,69,0
1394,-0.335,0.098,0.76,69,0
1395,-0.436,0.218,0.666,69,0
1396,-0.486,0.316,0.572,69,0
1397,-0.562,0.44,0.492,69,0
1398,-0.671,0.627,0.425,69,0
1399,-0.728,0.791,0.339,69,0
1400,-0.706,0.888,0.283,69,0
1401,-0.648,0.944,0.284,69,0
1402,-0.586,0.972,0.277,69,0
1403,-0.525,0.983,0.271,69,0
1404,-0.468,0.985,0.274,69,0
1405,-0.42,0.981,0.27,69,0
1406,-0.386,0.984,0.287,69,0
1407,-0.327,0.989,0.292,69,0
1408,-0.235,0.992,0.229,69,0
1409,-0.17,1.026,0.116,69,0
1410,-0.186,1.148,0.027,69,0
1411,-0.235,1.227,0.005,69,0
1412,-0.228,1.127,0.045,69,0
1413,-0.181,0.988,0.089,69,0
1414,-0.145,0.938,0.081,69,0
1415,-0.14,0.953,0.058,69,0
1416,-0.154,0.964,0.073,69,0
1417,-0.171,0.943,0.115,69,0
1418,-0.192,0.92,0.155,69,0
1419,-0.218,0.916,0.184,69,0
1420,-0.239,0.917,0.208,69,0
1421,-0.248,0.903,0.226,69,0
1422,-0.255,0.873,0.236,69,0
1423,-0.274,0.847,0.247,69,0
1424,-0.302,0.853,0.249,69,0
1425,-0.332,0.9,0.239,69,0
1426,-0.365,1.031,0.221,69,0
1427,-0.41,1.213,0.212,69,0
1428,-0.431,1.251,0.197,69,0
1429,-0.39,1.167,0.145,69,0
1430,-0.347,1.134,0.094,69,0
1431,-0.351,1.135,0.063,69,0
1432,-0.353,1.102,0.051,69,0
1433,-0.325,1.037,0.063,69,0
1434,-0.304,0.96,0.071,69,0
1435,-0.311,0.88,0.072,69,0
1436,-0.338,0.809,0.077,69,0
1437,-0.378,0.746,0.073,69,0
1438,-0.411,0.695,0.082,69,0
1439,-0.419,0.658,0.1,69,0
1440,-0.42,0.659,0.116,69,0
1441,-0.427,0.725,0.132,69,0
1442,-0.412,0.843,0.127,69,0
1443,-0.366,1.016,0.09,69,0
1444,-0.325,1.202,0.058,69,0
1445,-0.3,1.24,0.075,69,0
1446,-0.27,1.139,0.114,69,0
1447,-0.24,1.056,0.124,69,0
1448,-0.226,1.023,0.12,69,0
1449,-0.234,0.998,0.135,69,0
1450,-0.259,0.958,0.166,69,0
1451,-0.291,0.905,0.195,69,0
1452,-0.308,0.877,0.217,69,0
1453,-0.308,0.889,0.229,69,0
1454,-0.304,0.902,0.239,69,0
1455,-0.303,0.901,0.25,69,0
1456,-0.304,0.882,0.259,69,0
1457,-0.304,0.849,0.26,69,0
1458,-0.307,0.838,0.251,69,0
1459,-0.312,0.883,0.242,69,0
1460,-0.332,1.008,0.233,69,0
1461,-0.37,1.164,0.226,69,0
1462,-0.392,1.24,0.202,69,0
1463,-0.386,1.197,0.16,69,0
1464,-0.376,1.112,0.128,69,0
1465,-0.383,1.054,0.111,69,0
1466,-0.389,1.01,0.097,69,0
1467,-0.372,0.972,0.085,69,0
1468,-0.345,0.932,0.095,69,0
1469,-0.322,0.872,0.109,69,0
1470,-0.312,0.828,0.125,69,0
1471,-0.329,0.821,0.131,69,0
1472,-0.358,0.827,0.127,69,0
1473,-0.382,0.823,0.143,69,0
1474,-0.404,0.802,0.167,69,0
1475,-0.411,0.783,0.184,69,0
1476,-0.401,0.823,0.193,69,0
1477,-0.376,0.947,0.163,69,0
1478,-0.343,1.11,0.103,69,0
1479,-0.307,1.164,0.076,70,0
1480,-0.276,1.093,0.099,70,0
1481,-0.262,1.039,0.109,70,0
1482,-0.256,1.018,0.09,70,0
1483,-0.261,0.989,0.093,70,0
1484,-0.283,0.945,0.124,70,0
1485,-0.309,0.904,0.146,70,0
1486,-0.321,0.884,0.163,70,0
1487,-0.321,0.892,0.177,70,0
1488,-0.322,0.912,0.188,70,0
1489,-0.333,0.917,0.199,70,0
1490,-0.343,0.904,0.207,70,0
1491,-0.35,0.892,0.218,70,0
1492,-0.356,0.909,0.237,70,0
1493,-0.356,0.964,0.257,70,0
1494,-0.355,1.08,0.265,70,0
1495,-0.354,1.209,0.272,70,0
1496,-0.323,1.215,0.265,70,0
1497,-0.301,1.124,0.242,70,0
1498,-0.317,1.075,0.222,70,0
1499,-0.357,1.058,0.176,70,0
1500,-0.39,1.011,0.106,70,0
1501,-0.388,0.957,0.05,70,0
1502,-0.365,0.918,0.021,70,0
1503,-0.34,0.887,0.011,70,0
1504,-0.338,0.854,0.016,70,0
1505,-0.353,0.831,0.037,70,0
1506,-0.369,0.826,0.067,70,0
1507,-0.379,0.837,0.103,70,0
1508,-0.371,0.858,0.14,70,0
1509,-0.331,0.889,0.16,70,0
1510,-0.281,0.958,0.15,70,0
1511,-0.261,1.085,0.128,70,0
1512,-0.265,1.159,0.14,70,0
1513,-0.254,1.093,0.177,70,0
1514,-0.214,0.99,0.182,70,0
1515,-0.185,0.952,0.15,70,0
1516,-0.204,0.955,0.133,70,0
1517,-0.247,0.944,0.16,70,0
1518,-0.279,0.918,0.194,70,0
1519,-0.296,0.902,0.207,70,0
1520,-0.309,0.908,0.209,70,0
1521,-0.318,0.918,0.219,70,0
1522,-0.328,0.907,0.243,70,0
1523,-0.331,0.882,0.272,70,0
1524,-0.323,0.871,0.295,70,0
1525,-0.314,0.897,0.302,70,0
1526,-0.303,0.945,0.282,70,0
1527,-0.318,1.037,0.265,70,0
1528,-0.366,1.152,0.269,70,0
1529,-0.393,1.167,0.253,70,0
1530,-0.375,1.093,0.205,70,0
1531,-0.36,1.053,0.15,70,0
1532,-0.371,1.071,0.108,70,0
1533,-0.375,1.081,0.08,70,0
1534,-0.362,1.062,0.066,70,0
1535,-0.347,1.033,0.069,70,0
1536,-0.351,0.997,0.078,70,0
1537,-0.367,0.951,0.088,70,0
1538,-0.376,0.892,0.096,70,0
1539,-0.369,0.825,0.105,70,0
1540,-0.357,0.77,0.111,70,0
1541,-0.354,0.745,0.115,70,0
1542,-0.356,0.76,0.125,70,0
1543,-0.347,0.807,0.131,70,0
1544,-0.315,0.887,0.122,70,0
1545,-0.287,1.024,0.1,70,0
1546,-0.285,1.13,0.106,70,0
1547,-0.289,1.11,0.144,70,0
1548,-0.276,1.048,0.174,70,0
1549,-0.255,1.015,0.18,70,0
1550,-0.241,0.996,0.174,70,0
1551,-0.252,0.97,0.182,70,0
1552,-0.284,0.945,0.197,70,0
1553,-0.315,0.934,0.206,70,0
1554,-0.324,0.929,0.213,70,0
1555,-0.319,0.92,0.23,70,0
1556,-0.317,0.904,0.254,70,0
1557,-0.314,0.877,0.283,70,0
1558,-0.311,0.857,0.313,70,0
1559,-0.31,0.866,0.322,70,0
1560,-0.308,0.909,0.304,70,0
1561,-0.322,1.035,0.273,70,0
1562,-0.357,1.18,0.251,70,0
1563,-0.379,1.193,0.232,70,0
1564,-0.372,1.114,0.201,70,0
1565,-0.37,1.068,0.166,70,0
1566,-0.376,1.067,0.134,70,0
1567,-0.354,1.054,0.109,70,0
1568,-0.324,1.02,0.093,70,0
1569,-0.319,0.981,0.095,70,0
1570,-0.332,0.943,0.1,70,0
1571,-0.355,0.91,0.102,70,0
1572,-0.373,0.878,0.108,70,0
1573,-0.378,0.838,0.112,70,0
1574,-0.377,0.8,0.111,70,0
1575,-0.378,0.785,0.115,70,0
1576,-0.373,0.802,0.125,70,0
1577,-0.346,0.875,0.124,70,0
1578,-0.306,1.035,0.095,70,0
1579,-0.279,1.167,0.075,70,0
1580,-0.264,1.123,0.111,70,0
1581,-0.244,0.992,0.151,70,0
1582,-0.227,0.941,0.141,70,0
1583,-0.223,0.959,0.118,70,0
1584,-0.235,0.977,0.117,70,0
1585,-0.263,0.971,0.138,70,0
1586,-0.301,0.948,0.169,70,0
1587,-0.334,0.939,0.193,70,0
1588,-0.354,0.953,0.216,70,0
1589,-0.357,0.961,0.246,70,0
1590,-0.348,0.938,0.276,70,0
1591,-0.336,0.905,0.29,70,0
1592,-0.332,0.896,0.285,70,0
1593,-0.337,0.935,0.273,70,0
1594,-0.356,1.072,0.264,70,0
1595,-0.387,1.229,0.246,70,0
1596,-0.398,1.253,0.208,70,0
1597,-0.377,1.165,0.192,70,0
1598,-0.356,1.083,0.186,70,0
1599,-0.36,1.045,0.155,70,0
1600,-0.37,1.022,0.114,70,0
1601,-0.35,0.999,0.071,70,0
1602,-0.323,0.971,0.041,70,0
1603,-0.318,0.934,0.027,70,0
1604,-0.323,0.881,0.025,70,0
1605,-0.323,0.818,0.032,70,0
1606,-0.32,0.764,0.04,70,0
1607,-0.32,0.734,0.048,70,0
1608,-0.331,0.744,0.066,70,0
1609,-0.345,0.805,0.102,70,0
1610,-0.342,0.934,0.126,70,0
1611,-0.323,1.135,0.119,70,0
1612,-0.292,1.282,0.113,70,0
1613,-0.248,1.211,0.146,70,0
1614,-0.21,1.04,0.18,70,0
1615,-0.199,0.965,0.155,70,0
1616,-0.218,0.973,0.11,70,0
1617,-0.258,0.972,0.1,70,0
1618,-0.298,0.941,0.121,70,0
1619,-0.33,0.911,0.145,70,0
1620,-0.347,0.906,0.165,70,0
1621,-0.341,0.916,0.183,70,0
1622,-0.326,0.917,0.202,70,0
1623,-0.319,0.895,0.221,70,0
1624,-0.32,0.852,0.23,70,0
1625,-0.327,0.827,0.236,70,0
1626,-0.339,0.899,0.238,70,0
1627,-0.361,1.102,0.236,70,0
1628,-0.378,1.242,0.213,70,0
1629,-0.359,1.215,0.167,70,0
1630,-0.357,1.154,0.134,70,0
1631,-0.395,1.111,0.109,70,0
1632,-0.41,1.074,0.09,70,0
1633,-0.39,1.034,0.081,70,0
1634,-0.362,0.999,0.069,70,0
1635,-0.359,0.958,0.051,70,0
1636,-0.385,0.905,0.046,70,0
1637,-0.417,0.845,0.062,70,0
1638,-0.444,0.787,0.088,70,0
1639,-0.454,0.741,0.108,70,0
1640,-0.454,0.704,0.128,70,0
1641,-0.455,0.687,0.156,70,0
1642,-0.444,0.699,0.186,70,0
1643,-0.416,0.749,0.2,70,0
1644,-0.376,0.853,0.18,70,0
1645,-0.345,1.009,0.142,70,0
1646,-0.334,1.135,0.125,70,0
1647,-0.328,1.135,0.141,70,0
1648,-0.311,1.087,0.161,70,0
1649,-0.274,1.058,0.143,70,0
1650,-0.25,1.028,0.113,70,0
1651,-0.262,0.974,0.105,70,0
1652,-0.297,0.905,0.112,70,0
1653,-0.334,0.859,0.119,70,0
1654,-0.363,0.852,0.128,70,0
1655,-0.378,0.865,0.146,70,0
1656,-0.384,0.883,0.178,70,0
1657,-0.386,0.889,0.217,70,0
1658,-0.372,0.886,0.244,70,0
1659,-0.345,0.896,0.257,70,0
1660,-0.322,0.941,0.264,70,0
1661,-0.317,1.054,0.265,70,0
1662,-0.338,1.198,0.265,70,0
1663,-0.351,1.249,0.254,70,0
1664,-0.334,1.175,0.228,70,0
1665,-0.33,1.069,0.204,70,0
1666,-0.365,1.005,0.178,70,0
1667,-0.417,0.989,0.149,70,0
1668,-0.44,0.984,0.12,70,0
1669,-0.425,0.961,0.097,70,0
1670,-0.405,0.917,0.078,70,0
1671,-0.393,0.863,0.055,70,0
1672,-0.384,0.812,0.038,70,0
1673,-0.381,0.781,0.041,70,0
1674,-0.381,0.767,0.052,70,0
1675,-0.383,0.774,0.06,70,0
1676,-0.382,0.796,0.08,70,0
1677,-0.369,0.845,0.107,70,0
1678,-0.34,0.966,0.121,70,0
1679,-0.302,1.151,0.11,70,0
1680,-0.27,1.23,0.121,70,0
1681,-0.242,1.153,0.163,70,0
1682,-0.214,1.068,0.17,70,0
1683,-0.191,1.022,0.144,70,0
1684,-0.193,0.978,0.138,70,0
1685,-0.225,0.927,0.155,70,0
1686,-0.258,0.882,0.164,70,0
1687,-0.283,0.864,0.172,70,0
1688,-0.299,0.879,0.187,70,0
1689,-0.316,0.9,0.205,71,0
1690,-0.336,0.902,0.228,71,0
1691,-0.341,0.891,0.251,71,0
1692,-0.336,0.881,0.266,71,0
1693,-0.332,0.902,0.266,71,0
1694,-0.342,0.987,0.256,71,0
1695,-0.374,1.13,0.252,71,0
1696,-0.409,1.196,0.258,71,0
1697,-0.416,1.119,0.252,71,0
1698,-0.407,1.046,0.234,71,0
1699,-0.395,1.052,0.208,71,0
1700,-0.361,1.083,0.172,71,0
1701,-0.317,1.091,0.139,71,0
1702,-0.287,1.063,0.116,71,0
1703,-0.289,1.024,0.099,71,0
1704,-0.324,0.987,0.083,71,0
1705,-0.375,0.957,0.088,71,0
1706,-0.419,0.904,0.108,71,0
1707,-0.425,0.813,0.115,71,0
1708,-0.41,0.733,0.139,71,0
1709,-0.388,0.686,0.179,71,0
1710,-0.361,0.687,0.176,71,0
1711,-0.356,0.791,0.14,71,0
1712,-0.368,0.945,0.121,71,0
1713,-0.375,1.011,0.146,71,0
1714,-0.355,1.013,0.185,71,0
1715,-0.314,1.018,0.193,71,0
1716,-0.28,1.017,0.178,71,0
1717,-0.27,1,0.18,71,0
1718,-0.28,0.97,0.197,71,0
1719,-0.292,0.945,0.202,71,0
1720,-0.3,0.948,0.208,71,0
1721,-0.314,0.962,0.228,71,0
1722,-0.337,0.961,0.254,71,0
1723,-0.35,0.937,0.274,71,0
1724,-0.348,0.912,0.286,71,0
1725,-0.342,0.916,0.288,71,0
1726,-0.334,0.946,0.28,71,0
1727,-0.341,1.025,0.267,71,0
1728,-0.366,1.141,0.257,71,0
1729,-0.37,1.166,0.235,71,0
1730,-0.348,1.09,0.2,71,0
1731,-0.351,1.035,0.175,71,0
1732,-0.394,1.038,0.159,71,0
1733,-0.416,1.052,0.145,71,0
1734,-0.395,1.041,0.129,71,0
1735,-0.366,1.009,0.116,71,0
1736,-0.353,0.962,0.101,71,0
1737,-0.362,0.899,0.095,71,0
1738,-0.369,0.843,0.102,71,0
1739,-0.359,0.802,0.103,71,0
1740,-0.349,0.78,0.099,71,0
1741,-0.347,0.791,0.099,71,0
1742,-0.34,0.83,0.108,71,0
1743,-0.326,0.906,0.112,71,0
1744,-0.302,1.025,0.091,71,0
1745,-0.28,1.159,0.061,71,0
1746,-0.279,1.196,0.062,71,0
1747,-0.293,1.111,0.115,71,0
1748,-0.295,1.039,0.166,71,0
1749,-0.271,1.016,0.156,71,0
1750,-0.251,1.008,0.141,71,0
1751,-0.275,0.984,0.166,71,0
1752,-0.318,0.92,0.19,71,0
1753,-0.345,0.862,0.189,71,0
1754,-0.366,0.866,0.179,71,0
1755,-0.381,0.899,0.186,71,0
1756,-0.391,0.913,0.211,71,0
1757,-0.397,0.909,0.247,71,0
1758,-0.393,0.899,0.27,71,0
1759,-0.37,0.911,0.268,72,0
1760,-0.347,0.965,0.257,72,0
1761,-0.35,1.098,0.247,72,0
1762,-0.363,1.195,0.235,72,0
1763,-0.365,1.143,0.224,72,0
1764,-0.367,1.088,0.194,72,0
1765,-0.383,1.107,0.142,72,0
1766,-0.384,1.143,0.093,72,0
1767,-0.349,1.13,0.062,72,0
1768,-0.311,1.067,0.062,72,0
1769,-0.312,0.987,0.082,72,0
1770,-0.34,0.906,0.099,72,0
1771,-0.348,0.833,0.106,72,0
1772,-0.336,0.762,0.112,72,0
1773,-0.327,0.704,0.122,72,0
1774,-0.329,0.687,0.132,72,0
1775,-0.338,0.72,0.15,72,0
1776,-0.328,0.797,0.158,72,0
1777,-0.303,0.944,0.132,72,0
1778,-0.308,1.133,0.091,72,0
1779,-0.331,1.199,0.083,72,0
1780,-0.344,1.115,0.126,72,0
1781,-0.337,1.04,0.162,72,0
1782,-0.311,1.017,0.152,72,0
1783,-0.281,1.003,0.137,72,0
1784,-0.281,0.983,0.158,72,0
1785,-0.312,0.949,0.195,72,0
1786,-0.336,0.916,0.225,72,0
1787,-0.346,0.908,0.257,72,0
1788,-0.348,0.915,0.288,72,0
1789,-0.342,0.911,0.309,72,0
1790,-0.325,0.892,0.319,72,0
1791,-0.314,0.888,0.308,72,0
1792,-0.313,0.917,0.282,72,0
1793,-0.321,0.966,0.26,72,0
1794,-0.344,1.061,0.25,72,0
1795,-0.365,1.136,0.226,72,0
1796,-0.362,1.106,0.181,72,0
1797,-0.363,1.083,0.143,72,0
1798,-0.393,1.131,0.117,72,0
1799,-0.401,1.166,0.095,72,0
1800,-0.36,1.13,0.084,72,0
1801,-0.315,1.057,0.088,72,0
1802,-0.306,0.981,0.097,72,0
1803,-0.32,0.898,0.106,72,0
1804,-0.323,0.823,0.123,72,0
1805,-0.303,0.752,0.142,72,0
1806,-0.281,0.685,0.147,72,0
1807,-0.276,0.652,0.139,72,0
1808,-0.281,0.677,0.139,72,0
1809,-0.285,0.761,0.132,72,0
1810,-0.298,0.91,0.097,72,0
1811,-0.33,1.159,0.072,72,0
1812,-0.338,1.314,0.116,72,0
1813,-0.266,1.222,0.18,72,0
1814,-0.155,1.093,0.161,72,0
1815,-0.11,1.05,0.094,72,0
1816,-0.159,1.04,0.074,72,0
1817,-0.228,1.019,0.099,72,0
1818,-0.267,0.976,0.126,72,0
1819,-0.291,0.926,0.144,73,0
1820,-0.324,0.889,0.16,73,0
1821,-0.345,0.87,0.179,73,0
1822,-0.341,0.854,0.205,73,0
1823,-0.328,0.833,0.234,73,0
1824,-0.315,0.831,0.258,73,0
1825,-0.305,0.872,0.264,73,0
1826,-0.307,0.946,0.265,73,0
1827,-0.328,1.057,0.279,73,0
1828,-0.354,1.19,0.288,73,0
1829,-0.354,1.217,0.274,73,0
1830,-0.332,1.133,0.235,73,0
1831,-0.33,1.08,0.191,73,0
1832,-0.354,1.08,0.155,73,0
1833,-0.356,1.066,0.133,73,0
1834,-0.325,1.033,0.127,73,0
1835,-0.298,0.996,0.118,73,0
1836,-0.305,0.951,0.114,73,0
1837,-0.336,0.917,0.128,73,0
1838,-0.362,0.891,0.139,73,0
1839,-0.374,0.845,0.136,73,0
1840,-0.375,0.791,0.129,73,0
1841,-0.377,0.76,0.134,73,0
1842,-0.371,0.742,0.145,73,0
1843,-0.35,0.757,0.144,73,0
1844,-0.333,0.841,0.121,73,0
1845,-0.338,0.968,0.097,73,0
1846,-0.356,1.06,0.125,73,0
1847,-0.349,1.073,0.186,73,0
1848,-0.313,1.06,0.207,73,0
1849,-0.273,1.061,0.182,73,0
1850,-0.252,1.063,0.176,73,0
1851,-0.257,1.044,0.199,73,0
1852,-0.28,0.993,0.217,73,0
1853,-0.311,0.935,0.239,73,0
1854,-0.325,0.89,0.261,73,0
1855,-0.316,0.865,0.278,73,0
1856,-0.308,0.85,0.287,73,0
1857,-0.314,0.826,0.294,73,0
1858,-0.332,0.82,0.298,73,0
1859,-0.34,0.866,0.291,73,0
1860,-0.34,0.947,0.268,73,0
1861,-0.352,1.09,0.24,73,0
1862,-0.378,1.198,0.231,73,0
1863,-0.385,1.154,0.237,73,0
1864,-0.372,1.071,0.229,73,0
1865,-0.377,1.053,0.203,73,0
1866,-0.383,1.084,0.173,73,0
1867,-0.353,1.1,0.146,73,0
1868,-0.314,1.073,0.126,73,0
1869,-0.293,1.032,0.104,74,0
1870,-0.286,0.99,0.084,74,0
1871,-0.29,0.931,0.076,74,0
1872,-0.297,0.858,0.081,74,0
1873,-0.298,0.775,0.086,74,0
1874,-0.3,0.714,0.093,74,0
1875,-0.303,0.717,0.113,74,0
1876,-0.297,0.781,0.125,74,0
1877,-0.286,0.915,0.111,74,0
1878,-0.285,1.104,0.091,74,0
1879,-0.297,1.197,0.102,74,0
1880,-0.296,1.153,0.148,74,0
1881,-0.276,1.105,0.17,74,0
1882,-0.253,1.086,0.151,74,0
1883,-0.242,1.062,0.15,74,0
1884,-0.244,1.015,0.177,74,0
1885,-0.263,0.949,0.193,74,0
1886,-0.291,0.874,0.207,74,0
1887,-0.312,0.819,0.229,74,0
1888,-0.319,0.802,0.243,74,0
1889,-0.321,0.811,0.26,74,0
1890,-0.324,0.819,0.281,74,0
1891,-0.319,0.833,0.283,74,0
1892,-0.321,0.878,0.27,74,0
1893,-0.334,0.945,0.261,74,0
1894,-0.351,1.079,0.254,74,0
1895,-0.369,1.217,0.256,74,0
1896,-0.36,1.22,0.257,74,0
1897,-0.329,1.143,0.233,74,0
1898,-0.34,1.105,0.204,74,0
1899,-0.379,1.105,0.182,74,0
1900,-0.384,1.083,0.149,74,0
1901,-0.356,1.035,0.112,74,0
1902,-0.333,0.974,0.085,74,0
1903,-0.323,0.903,0.058,74,0
1904,-0.314,0.835,0.031,74,0
1905,-0.309,0.776,0.015,74,0
1906,-0.31,0.738,0.014,74,0
1907,-0.323,0.752,0.033,74,0
1908,-0.332,0.814,0.068,74,0
1909,-0.31,0.893,0.099,74,0
1910,-0.263,1.027,0.098,74,0
1911,-0.228,1.204,0.092,74,0
1912,-0.223,1.229,0.135,74,0
1913,-0.217,1.105,0.202,74,0
1914,-0.191,1.027,0.217,74,0
1915,-0.169,1.008,0.176,74,0
1916,-0.185,0.994,0.143,74,0
1917,-0.231,0.964,0.144,74,0
1918,-0.27,0.915,0.153,74,0
1919,-0.296,0.869,0.17,75,0
1920,-0.315,0.855,0.194,75,0
1921,-0.331,0.864,0.21,75,0
1922,-0.337,0.86,0.227,75,0
1923,-0.324,0.848,0.244,75,0
1924,-0.302,0.861,0.248,75,0
1925,-0.298,0.909,0.246,75,0
1926,-0.31,0.97,0.243,75,0
1927,-0.326,1.052,0.235,75,0
1928,-0.35,1.152,0.226,75,0
1929,-0.364,1.169,0.213,75,0
1930,-0.354,1.107,0.184,75,0
1931,-0.352,1.085,0.151,75,0
1932,-0.368,1.093,0.124,75,0
1933,-0.358,1.067,0.1,75,0
1934,-0.339,1.024,0.077,75,0
1935,-0.353,0.981,0.06,75,0
1936,-0.386,0.92,0.057,75,0
1937,-0.417,0.868,0.075,75,0
1938,-0.432,0.844,0.093,75,0
1939,-0.43,0.819,0.093,75,0
1940,-0.423,0.781,0.092,75,0
1941,-0.419,0.75,0.097,75,0
1942,-0.416,0.74,0.108,75,0
1943,-0.411,0.784,0.121,75,0
1944,-0.404,0.884,0.112,75,0
1945,-0.396,1.031,0.088,75,0
1946,-0.378,1.135,0.088,75,0
1947,-0.356,1.092,0.131,75,0
1948,-0.342,0.997,0.172,75,0
1949,-0.328,0.958,0.159,75,0
1950,-0.313,0.965,0.128,75,0
1951,-0.311,0.97,0.119,75,0
1952,-0.332,0.955,0.128,75,0
1953,-0.357,0.928,0.138,75,0
1954,-0.371,0.904,0.149,75,0
1955,-0.366,0.904,0.166,75,0
1956,-0.355,0.912,0.189,75,0
1957,-0.351,0.901,0.219,75,0
1958,-0.346,0.885,0.245,75,0
1959,-0.344,0.896,0.252,76,0
1960,-0.349,0.941,0.246,76,0
1961,-0.357,1.015,0.242,76,0
1962,-0.367,1.115,0.236,76,0
1963,-0.372,1.191,0.224,76,0
1964,-0.358,1.169,0.196,76,0
1965,-0.337,1.078,0.152,76,0
1966,-0.356,1.026,0.12,76,0
1967,-0.404,1.032,0.099,76,0
1968,-0.409,1.019,0.077,76,0
1969,-0.375,0.967,0.062,76,0
1970,-0.362,0.927,0.053,76,0
1971,-0.371,0.904,0.047,76,0
1972,-0.388,0.881,0.061,76,0
1973,-0.414,0.85,0.086,76,0
1974,-0.422,0.815,0.104,76,0
1975,-0.41,0.788,0.117,76,0
1976,-0.398,0.78,0.13,76,0
1977,-0.38,0.799,0.135,76,0
1978,-0.351,0.863,0.122,76,0
1979,-0.327,0.977,0.101,76,0
1980,-0.318,1.067,0.086,76,0
1981,-0.332,1.036,0.132,76,0
1982,-0.334,0.968,0.194,76,0
1983,-0.315,0.985,0.179,76,0
1984,-0.308,1.049,0.148,76,0
1985,-0.317,1.067,0.166,76,0
1986,-0.336,1.021,0.192,76,0
1987,-0.339,0.961,0.186,76,0
1988,-0.325,0.923,0.172,76,0
1989,-0.309,0.909,0.181,76,0
1990,-0.294,0.888,0.203,76,0
1991,-0.291,0.856,0.223,76,0
1992,-0.296,0.845,0.236,76,0
1993,-0.307,0.864,0.249,76,0
1994,-0.323,0.888,0.254,76,0
1995,-0.343,0.917,0.252,76,0
1996,-0.361,0.98,0.25,76,0
1997,-0.373,1.071,0.246,76,0
1998,-0.369,1.095,0.233,76,0
1999,-0.362,1.062,0.207,76,0
2000,-0.372,1.076,0.175,76,0
2001,-0.387,1.127,0.136,76,0
2002,-0.372,1.134,0.095,76,0
2003,-0.339,1.081,0.078,76,0
2004,-0.333,1.002,0.085,76,0
2005,-0.354,0.922,0.094,76,0
2006,-0.373,0.867,0.1,76,0
2007,-0.378,0.833,0.111,76,0
2008,-0.378,0.806,0.121,76,0
2009,-0.382,0.786,0.122,77,0
2010,-0.387,0.782,0.124,77,0
2011,-0.388,0.791,0.134,77,0
2012,-0.382,0.827,0.139,77,0
2013,-0.359,0.913,0.13,77,0
2014,-0.324,1.038,0.11,77,0
2015,-0.297,1.111,0.106,77,0
2016,-0.285,1.091,0.116,77,0
2017,-0.28,1.048,0.111,77,0
2018,-0.268,1.025,0.098,77,0
2019,-0.257,1.002,0.107,77,0
2020,-0.258,0.955,0.126,77,0
2021,-0.277,0.894,0.135,77,0
2022,-0.303,0.844,0.151,77,0
2023,-0.323,0.83,0.179,77,0
2024,-0.344,0.849,0.204,77,0
2025,-0.365,0.876,0.231,77,0
2026,-0.375,0.892,0.26,77,0
2027,-0.374,0.901,0.278,77,0
2028,-0.365,0.918,0.281,77,0
2029,-0.357,0.956,0.272,77,0
2030,-0.369,1.048,0.258,77,0
2031,-0.399,1.175,0.246,77,0
2032,-0.411,1.209,0.232,77,0
2033,-0.397,1.134,0.199,77,0
2034,-0.39,1.078,0.158,77,0
2035,-0.393,1.069,0.12,77,0
2036,-0.379,1.049,0.091,77,0
2037,-0.345,1.013,0.082,77,0
2038,-0.324,0.972,0.079,77,0
2039,-0.332,0.924,0.069,77,0
2040,-0.336,0.874,0.058,77,0
2041,-0.321,0.826,0.056,77,0
2042,-0.307,0.795,0.056,77,0
2043,-0.311,0.797,0.06,77,0
2044,-0.315,0.826,0.075,77,0
2045,-0.298,0.867,0.092,77,0
2046,-0.267,0.957,0.092,77,0
2047,-0.246,1.114,0.077,77,0
2048,-0.253,1.191,0.088,77,0
2049,-0.264,1.121,0.139,78,0
2050,-0.248,1.034,0.177,78,0
2051,-0.213,0.986,0.17,78,0
2052,-0.199,0.954,0.149,78,0
2053,-0.228,0.926,0.141,78,0
2054,-0.273,0.892,0.145,78,0
2055,-0.317,0.861,0.15,78,0
2056,-0.347,0.872,0.152,78,0
2057,-0.354,0.917,0.159,78,0
2058,-0.355,0.932,0.187,78,0
2059,-0.351,0.904,0.223,78,0
2060,-0.343,0.881,0.243,78,0
2061,-0.348,0.898,0.243,78,0
2062,-0.36,0.966,0.236,78,0
2063,-0.374,1.095,0.235,78,0
2064,-0.391,1.224,0.234,78,0
2065,-0.392,1.261,0.215,78,0
2066,-0.375,1.194,0.179,78,0
2067,-0.375,1.107,0.146,78,0
2068,-0.411,1.062,0.117,78,0
2069,-0.432,1.029,0.084,78,0
2070,-0.411,0.985,0.062,78,0
2071,-0.385,0.935,0.053,78,0
2072,-0.378,0.883,0.043,78,0
2073,-0.385,0.841,0.027,78,0
2074,-0.387,0.817,0.019,78,0
2075,-0.379,0.796,0.023,78,0
2076,-0.372,0.783,0.028,78,0
2077,-0.374,0.81,0.042,78,0
2078,-0.352,0.876,0.062,78,0
2079,-0.293,0.973,0.059,78,0
2080,-0.234,1.119,0.031,78,0
2081,-0.197,1.221,0.036,78,0
2082,-0.166,1.19,0.088,78,0
2083,-0.119,1.105,0.12,78,0
2084,-0.086,1.048,0.105,78,0
2085,-0.106,1.011,0.102,78,0
2086,-0.163,0.97,0.135,78,0
2087,-0.218,0.931,0.171,78,0
2088,-0.256,0.906,0.196,78,0
2089,-0.269,0.888,0.212,78,0
2090,-0.27,0.88,0.236,78,0
2091,-0.282,0.875,0.275,78,0
2092,-0.299,0.854,0.309,78,0
2093,-0.31,0.824,0.329,78,0
2094,-0.307,0.837,0.327,78,0
2095,-0.296,0.904,0.298,78,0
2096,-0.292,1.032,0.257,78,0
2097,-0.315,1.181,0.222,78,0
2098,-0.344,1.209,0.192,78,0
2099,-0.347,1.115,0.173,79,0
2100,-0.357,1.035,0.16,79,0
2101,-0.386,1.011,0.146,79,0
2102,-0.384,1.007,0.148,79,0
2103,-0.354,1.002,0.156,79,0
2104,-0.349,0.995,0.153,79,0
2105,-0.376,0.977,0.138,79,0
2106,-0.41,0.941,0.127,79,0
2107,-0.433,0.892,0.127,79,0
2108,-0.444,0.841,0.125,79,0
2109,-0.452,0.792,0.12,79,0
2110,-0.456,0.753,0.122,79,0
2111,-0.456,0.741,0.128,79,0
2112,-0.446,0.78,0.133,79,0
2113,-0.423,0.881,0.112,79,0
2114,-0.394,1.043,0.065,79,0
2115,-0.381,1.171,0.051,79,0
2116,-0.377,1.14,0.115,79,0
2117,-0.341,1.023,0.186,79,0
2118,-0.297,0.971,0.185,79,0
2119,-0.276,0.978,0.162,79,0
2120,-0.279,0.981,0.18,79,0
2121,-0.306,0.958,0.217,79,0
2122,-0.34,0.928,0.221,79,0
2123,-0.354,0.915,0.2,79,0
2124,-0.347,0.914,0.181,79,0
2125,-0.356,0.903,0.184,79,0
2126,-0.364,0.88,0.226,79,0
2127,-0.357,0.855,0.277,79,0
2128,-0.346,0.844,0.305,79,0
2129,-0.329,0.854,0.307,79,0
2130,-0.308,0.9,0.293,79,0
2131,-0.317,1.038,0.283,79,0
2132,-0.341,1.142,0.27,79,0
2133,-0.33,1.119,0.225,79,0
2134,-0.312,1.111,0.167,79,0
2135,-0.328,1.146,0.117,79,0
2136,-0.34,1.145,0.076,79,0
2137,-0.324,1.094,0.052,79,0
2138,-0.31,1.025,0.044,79,0
2139,-0.302,0.947,0.052,80,0
2140,-0.3,0.865,0.085,80,0
2141,-0.304,0.812,0.112,80,0
2142,-0.317,0.786,0.121,80,0
2143,-0.341,0.776,0.14,80,0
2144,-0.371,0.781,0.159,80,0
2145,-0.403,0.798,0.175,80,0
2146,-0.417,0.839,0.197,80,0
2147,-0.398,0.938,0.197,80,0
2148,-0.367,1.072,0.159,80,0
2149,-0.341,1.172,0.125,80,0
2150,-0.314,1.145,0.144,80,0
2151,-0.29,1.019,0.186,80,0
2152,-0.263,0.944,0.18,80,0
2153,-0.238,0.949,0.136,80,0
2154,-0.241,0.967,0.118,80,0
2155,-0.27,0.968,0.128,80,0
2156,-0.301,0.949,0.134,80,0
2157,-0.325,0.922,0.134,80,0
2158,-0.338,0.9,0.134,80,0
2159,-0.348,0.883,0.146,80,0
2160,-0.362,0.873,0.176,80,0
2161,-0.372,0.869,0.211,80,0
2162,-0.368,0.877,0.238,80,0
2163,-0.352,0.911,0.246,80,0
2164,-0.339,0.969,0.245,80,0
2165,-0.343,1.066,0.246,80,0
2166,-0.355,1.145,0.245,80,0
2167,-0.356,1.141,0.223,80,0
2168,-0.354,1.105,0.181,80,0
2169,-0.36,1.08,0.145,80,0
2170,-0.353,1.061,0.123,80,0
2171,-0.328,1.036,0.11,80,0
2172,-0.312,0.992,0.099,80,0
2173,-0.311,0.939,0.089,80,0
2174,-0.311,0.886,0.089,80,0
2175,-0.311,0.839,0.104,80,0
2176,-0.31,0.805,0.128,80,0
2177,-0.306,0.787,0.147,80,0
2178,-0.307,0.794,0.162,80,0
2179,-0.314,0.831,0.182,80,0
2180,-0.308,0.878,0.196,80,0
2181,-0.273,0.945,0.176,80,0
2182,-0.227,1.066,0.118,80,0
2183,-0.199,1.168,0.063,80,0
2184,-0.196,1.15,0.058,80,0
2185,-0.21,1.076,0.074,80,0
2186,-0.214,1.032,0.067,80,0
2187,-0.213,1.003,0.062,80,0
2188,-0.226,0.963,0.086,80,0
2189,-0.249,0.91,0.125,81,0
2190,-0.273,0.862,0.164,81,0
2191,-0.296,0.851,0.19,81,0
2192,-0.325,0.885,0.211,81,0
2193,-0.349,0.932,0.237,81,0
2194,-0.348,0.959,0.272,81,0
2195,-0.318,0.944,0.3,81,0
2196,-0.294,0.917,0.296,81,0
2197,-0.293,0.922,0.271,81,0
2198,-0.298,0.972,0.246,81,0
2199,-0.317,1.074,0.237,81,0
2200,-0.348,1.178,0.241,81,0
2201,-0.352,1.186,0.216,81,0
2202,-0.339,1.125,0.157,81,0
2203,-0.343,1.086,0.097,81,0
2204,-0.354,1.076,0.053,81,0
2205,-0.336,1.048,0.036,81,0
2206,-0.302,0.988,0.043,81,0
2207,-0.29,0.923,0.054,81,0
2208,-0.3,0.87,0.055,81,0
2209,-0.322,0.837,0.061,81,0
2210,-0.346,0.822,0.078,81,0
2211,-0.365,0.819,0.1,81,0
2212,-0.379,0.817,0.123,81,0
2213,-0.387,0.809,0.142,81,0
2214,-0.391,0.808,0.163,81,0
2215,-0.413,0.85,0.185,81,0
2216,-0.453,0.935,0.203,81,0
2217,-0.481,1.005,0.227,81,0
2218,-0.492,1.016,0.259,81,0
2219,-0.489,0.989,0.272,81,0
2220,-0.479,0.969,0.26,81,0
2221,-0.469,0.952,0.261,81,0
2222,-0.469,0.915,0.283,81,0
2223,-0.479,0.857,0.296,81,0
2224,-0.487,0.791,0.291,81,0
2225,-0.474,0.731,0.289,81,0
2226,-0.446,0.687,0.29,81,0
2227,-0.432,0.652,0.286,81,0
2228,-0.438,0.625,0.288,81,0
2229,-0.449,0.611,0.303,81,0
2230,-0.462,0.635,0.315,81,0
2231,-0.468,0.698,0.323,81,0
2232,-0.472,0.783,0.317,81,0
2233,-0.497,0.914,0.293,81,0
2234,-0.545,1.061,0.27,81,0
2235,-0.581,1.116,0.252,81,0
2236,-0.57,1.045,0.235,81,0
2237,-0.538,0.95,0.222,81,0
2238,-0.508,0.903,0.203,81,0
2239,-0.466,0.865,0.173,82,0
2240,-0.432,0.823,0.162,82,0
2241,-0.425,0.797,0.164,82,0
2242,-0.428,0.789,0.161,82,0
2243,-0.424,0.801,0.167,82,0
2244,-0.412,0.823,0.172,82,0
2245,-0.408,0.833,0.168,82,0
2246,-0.411,0.843,0.166,82,0
2247,-0.41,0.892,0.176,82,0
2248,-0.394,0.975,0.18,82,0
2249,-0.352,1.081,0.165,82,0
2250,-0.309,1.193,0.142,82,0
2251,-0.274,1.211,0.134,82,0
2252,-0.234,1.098,0.152,82,0
2253,-0.217,0.982,0.17,82,0
2254,-0.244,0.944,0.175,82,0
2255,-0.298,0.948,0.199,82,0
2256,-0.358,0.95,0.248,82,0
2257,-0.413,0.925,0.269,82,0
2258,-0.449,0.875,0.258,82,0
2259,-0.444,0.827,0.251,82,0
2260,-0.419,0.778,0.262,82,0
2261,-0.403,0.723,0.293,82,0
2262,-0.389,0.679,0.31,82,0
2263,-0.387,0.669,0.313,82,0
2264,-0.416,0.702,0.324,82,0
2265,-0.452,0.769,0.328,82,0
2266,-0.502,0.873,0.312,82,0
2267,-0.566,0.971,0.308,82,0
2268,-0.57,0.954,0.319,82,0
2269,-0.553,0.855,0.3,82,0
2270,-0.572,0.807,0.241,82,0
2271,-0.597,0.817,0.179,82,0
2272,-0.617,0.828,0.145,82,0
2273,-0.636,0.807,0.158,82,0
2274,-0.598,0.754,0.185,82,0
2275,-0.579,0.686,0.166,82,0
2276,-0.635,0.642,0.153,82,0
2277,-0.635,0.621,0.168,82,0
2278,-0.621,0.647,0.192,82,0
2279,-0.606,0.725,0.256,83,0
2280,-0.543,0.791,0.326,83,0
2281,-0.509,0.853,0.367,83,0
2282,-0.507,0.955,0.395,83,0
2283,-0.469,1.033,0.432,83,0
2284,-0.397,0.995,0.464,83,0
2285,-0.356,0.893,0.457,83,0
2286,-0.361,0.825,0.436,83,0
2287,-0.356,0.775,0.452,83,0
2288,-0.325,0.728,0.487,83,0
2289,-0.32,0.686,0.497,83,0
2290,-0.364,0.639,0.484,83,0
2291,-0.376,0.624,0.482,83,0
2292,-0.341,0.652,0.505,83,0
2293,-0.313,0.688,0.541,83,0
2294,-0.307,0.684,0.565,83,0
2295,-0.327,0.651,0.568,83,0
2296,-0.361,0.652,0.557,83,0
2297,-0.399,0.707,0.545,83,0
2298,-0.438,0.818,0.533,83,0
2299,-0.458,0.921,0.527,83,0
2300,-0.492,0.914,0.519,83,0
2301,-0.553,0.822,0.471,83,0
2302,-0.61,0.761,0.406,83,0
2303,-0.62,0.777,0.378,83,0
2304,-0.571,0.804,0.375,83,0
2305,-0.53,0.784,0.364,83,0
2306,-0.52,0.719,0.339,83,0
2307,-0.516,0.648,0.327,83,0
2308,-0.504,0.604,0.325,83,0
2309,-0.501,0.601,0.328,83,0
2310,-0.513,0.648,0.339,83,0
2311,-0.519,0.725,0.356,83,0
2312,-0.516,0.807,0.361,83,0
2313,-0.523,0.908,0.331,83,0
2314,-0.533,1.043,0.303,83,0
2315,-0.512,1.089,0.326,83,0
2316,-0.481,0.979,0.346,83,0
2317,-0.478,0.857,0.315,83,0
2318,-0.485,0.815,0.286,83,0
2319,-0.49,0.805,0.291,83,0
2320,-0.497,0.764,0.297,83,0
2321,-0.508,0.696,0.295,83,0
2322,-0.515,0.653,0.294,83,0
2323,-0.512,0.663,0.303,83,0
2324,-0.51,0.698,0.332,83,0
2325,-0.52,0.706,0.36,83,0
2326,-0.536,0.685,0.365,83,0
2327,-0.548,0.681,0.361,83,0
2328,-0.565,0.716,0.357,83,0
2329,-0.597,0.799,0.34,84,0
2330,-0.639,0.918,0.311,84,0
2331,-0.665,0.975,0.293,84,0
2332,-0.675,0.902,0.275,84,0
2333,-0.684,0.784,0.232,84,0
2334,-0.674,0.739,0.18,84,0
2335,-0.635,0.767,0.165,84,0
2336,-0.593,0.786,0.183,84,0
2337,-0.583,0.75,0.191,84,0
2338,-0.589,0.676,0.181,84,0
2339,-0.578,0.616,0.179,83,0
2340,-0.558,0.601,0.193,83,0
2341,-0.558,0.627,0.212,83,0
2342,-0.579,0.688,0.226,83,0
2343,-0.6,0.756,0.239,83,0
2344,-0.611,0.816,0.245,83,0
2345,-0.607,0.892,0.238,83,0
2346,-0.588,0.983,0.245,83,0
2347,-0.554,1.009,0.271,83,0
2348,-0.532,0.933,0.265,83,0
2349,-0.538,0.85,0.228,83,0
2350,-0.539,0.833,0.222,83,0
2351,-0.522,0.838,0.243,83,0
2352,-0.518,0.793,0.256,83,0
2353,-0.541,0.711,0.252,83,0
2354,-0.561,0.639,0.241,83,0
2355,-0.566,0.612,0.236,83,0
2356,-0.565,0.625,0.242,83,0
2357,-0.569,0.643,0.256,83,0
2358,-0.588,0.662,0.269,83,0
2359,-0.614,0.7,0.281,83,0
2360,-0.652,0.768,0.294,83,0
2361,-0.666,0.866,0.314,83,0
2362,-0.65,0.937,0.321,83,0
2363,-0.666,0.901,0.287,83,0
2364,-0.696,0.804,0.23,83,0
2365,-0.696,0.762,0.184,83,0
2366,-0.669,0.779,0.173,83,0
2367,-0.634,0.788,0.202,83,0
2368,-0.637,0.775,0.258,83,0
2369,-0.695,0.717,0.347,83,0
2370,-0.75,0.576,0.49,83,0
2371,-0.742,0.374,0.628,83,0
2372,-0.719,0.186,0.659,83,0
2373,-0.732,0.073,0.592,83,0
2374,-0.727,0.068,0.513,83,0
2375,-0.682,0.163,0.452,83,0
2376,-0.613,0.31,0.417,83,0
2377,-0.537,0.473,0.446,83,0
2378,-0.476,0.641,0.508,83,0
2379,-0.403,0.769,0.525,84,0